participant_id	onset	duration	trial_type	trial_code	response	RT	money	carbon
2711a	5.7931	10	CET	c4_m2	LEFT	2.7268	50	40
2711a	20.8354	10	CET	c1_m1	RIGHT	2.0685000000000002	10	2
2711a	36.1265	10	dummy	dl0	LEFT	2.4174000000000007	0	0
2711a	51.1682	10	CET	m5_c2	LEFT	2.871700000000004	120	10
2711a	66.9604	10	CET	c3_m5	LEFT	3.5034999999999883	120	25
2711a	83.2521	10	CET	m0_c2	RIGHT	3.227800000000002	0	10
2711a	99.5433	10	CET	c5_m0	LEFT	2.296599999999998	0	50
2711a	114.585	10	dummy	dr0	RIGHT	1.8389000000000095	0	0
2711a	130.6267	10	CET	m4_c5	RIGHT	2.813199999999995	100	50
2711a	147.4189	10	CET	c3_m2	LEFT	2.6048999999999864	50	25
2711a	162.9606	10	CET	m1_c3	RIGHT	2.4632000000000005	10	25
2711a	178.0106	10	dummy	dl1	LEFT	1.6931999999999903	0	0
2711a	193.0523	10	CET	c0_m0	LEFT	4.091499999999996	0	0
2711a	208.344	10	CET	c4_m1	LEFT	2.5597999999999956	10	40
2711a	224.8857	10	CET	m4_c3	LEFT	4.034099999999995	100	25
2711a	240.9266	10	dummy	dr1	RIGHT	1.4971999999999923	0	0
2711a	256.719	10	CET	c5_m5	LEFT	3.7848000000000184	120	50
2711a	273.0107	10	CET	m1_c0	LEFT	2.0131000000000085	10	0
2711a	290.0519	10	dummy	dr3	RIGHT	1.6439000000000306	0	0
2711a	306.5941	10	CET	m3_c3	RIGHT	3.181699999999978	80	25
2711a	322.8941	10	CET	m3_c5	RIGHT	2.2256000000000427	80	50
2711a	338.1775	10	CET	m2_c1	LEFT	2.7982000000000085	50	2
2711a	354.7192	10	CET	c1_m0	LEFT	2.3765000000000214	0	2
2711a	371.7609	10	dummy	dr2	RIGHT	1.574799999999982	0	0
2711a	387.8026	10	CET	m2_c2	LEFT	3.0371000000000095	50	10
2711a	403.3609	10	CET	m4_c0	LEFT	1.7987999999999715	100	0
2711a	418.8943	10	CET	c0_m5	RIGHT	1.641300000000001	120	0
2711a	435.186	10	dummy	dl3	LEFT	1.5097000000000094	0	0
2711a	451.977	10	CET	m4_c1	LEFT	1.998700000000042	100	2
2711a	467.2694	10	CET	c4_m4	LEFT	3.1701999999999657	100	40
2711a	483.3104	10	dummy	dl2	LEFT	1.4492999999999938	0	0
2711a	498.3527	10	CET	c0_m2	RIGHT	1.8228999999999473	50	0
2711a	514.9111	10	CET	c4_m3	LEFT	2.3684999999999263	80	40
2711a	530.7028	10	CET	m5_c4	RIGHT	3.4728000000000065	120	40
2711a	546.4939	10	CET	c4_m0	LEFT	1.2416999999999234	0	40
2711a	561.5528	10	dummy	dl4	LEFT	1.3666999999999234	0	0
2711a	578.3273	10	CET	c2_m4	RIGHT	2.088300000000004	100	10
2711a	593.3779	10	CET	m5_c1	LEFT	1.3577000000000226	120	2
2711a	609.9196	10	CET	c5_m1	LEFT	1.8560000000001082	10	50
2711a	625.7107	10	dummy	dr4	RIGHT	1.2088999999999714	0	0
2711a	640.7529	10	CET	m0_c3	RIGHT	1.6067000000000462	0	25
2711a	657.5446	10	CET	c0_m3	RIGHT	1.7110000000000127	80	0
2711a	674.3447	10	dummy	dl5	LEFT	1.630899999999997	0	0
2711a	689.8864	10	CET	m3_c2	LEFT	2.233100000000036	80	10
2711a	705.1864	10	CET	m2_c5	RIGHT	1.7490999999999985	50	50
2711a	721.4691	10	dummy	dr5	RIGHT	1.3063999999999396	0	0
2711a	737.0114	10	CET	c1_m3	RIGHT	1.8437999999999874	80	2
2711a	753.8031	10	CET	m1_c2	RIGHT	1.8523999999999887	10	10
2711b	5.7868	10	CET	c4_m2	LEFT	2.509199999999999	50	40
2711b	20.8285	10	CET	c1_m1	LEFT	2.2915000000000028	10	2
2711b	36.1202	10	dummy	dl0	LEFT	2.0397999999999996	0	0
2711b	51.1613	10	CET	m5_c2	LEFT	2.1987000000000023	120	10
2711b	66.9536	10	CET	c3_m5	LEFT	4.126400000000004	120	25
2711b	83.2453	10	CET	m0_c2	RIGHT	4.050700000000006	0	10
2711b	99.537	10	CET	c5_m0	LEFT	1.5829999999999984	0	50
2711b	114.5786	10	dummy	dr0	RIGHT	1.7413000000000096	0	0
2711b	130.6203	10	CET	m4_c5	RIGHT	4.659600000000012	100	50
2711b	147.412	10	CET	c3_m2	RIGHT	3.5798999999999808	50	25
2711b	162.9531	10	CET	m1_c3	RIGHT	1.4788000000000068	10	25
2711b	177.9949	10	dummy	dl1	LEFT	2.2210000000000036	0	0
2711b	193.0371	10	CET	c0_m0	RIGHT	4.674800000000005	0	0
2711b	208.3288	10	CET	c4_m1	LEFT	2.8471000000000117	10	40
2711b	224.8705	10	CET	m4_c3	LEFT	8.665400000000005	100	25
2711b	240.9116	10	dummy	dr1	RIGHT	1.9202999999999975	0	0
2711b	256.7039	10	CET	c5_m5	LEFT	3.3280000000000314	120	50
2711b	272.9956	10	CET	m1_c0	LEFT	2.6201999999999543	10	0
2711b	290.0451	10	dummy	dr3	RIGHT	1.866700000000037	0	0
2711b	306.5873	10	CET	m3_c3	LEFT	3.9085999999999785	80	25
2711b	322.8873	10	CET	m3_c5	RIGHT	2.2245000000000346	80	50
2711b	338.1873	10	CET	m2_c1	LEFT	2.924500000000023	50	2
2711b	354.7207	10	CET	c1_m0	LEFT	2.1749999999999545	0	2
2711b	371.7618	10	dummy	dr2	RIGHT	1.9499999999999886	0	0
2711b	387.8041	10	CET	m2_c2	RIGHT	4.49169999999998	50	10
2711b	403.3458	10	CET	m4_c0	LEFT	1.5260000000000105	100	0
2711b	418.8952	10	CET	c0_m5	RIGHT	1.6166000000000054	120	0
2711b	435.1875	10	dummy	dl3	LEFT	2.644299999999987	0	0
2711b	451.9792	10	CET	m4_c1	LEFT	2.4764999999999873	100	2
2711b	467.2709	10	CET	c4_m4	RIGHT	5.04079999999999	100	40
2711b	483.3203	10	dummy	dl2	LEFT	2.1114000000000033	0	0
2711b	498.3626	10	CET	c0_m2	RIGHT	1.7730999999999995	50	0
2711b	514.9209	10	CET	c4_m3	LEFT	3.150800000000004	80	40
2711b	530.7126	10	CET	m5_c4	LEFT	2.543100000000095	120	40
2711b	546.5043	10	CET	c4_m0	LEFT	1.8074000000000296	0	40
2711b	561.546	10	dummy	dl4	LEFT	2.0856999999999744	0	0
2711b	578.3454	10	CET	c2_m4	RIGHT	4.00630000000001	100	10
2711b	593.3877	10	CET	m5_c1	LEFT	1.86749999999995	120	2
2711b	609.9294	10	CET	c5_m1	LEFT	2.0861999999999625	10	50
2711b	625.7295	10	dummy	dr4	RIGHT	1.702099999999973	0	0
2711b	640.7711	10	CET	m0_c3	RIGHT	2.1164999999999736	0	25
2711b	657.5712	10	CET	c0_m3	RIGHT	2.1403999999999996	80	0
2711b	674.3629	10	dummy	dl5	LEFT	1.924600000000055	0	0
2711b	689.904	10	CET	m3_c2	RIGHT	6.823600000000056	80	10
2711b	705.1962	10	CET	m2_c5	RIGHT	2.1154000000000224	50	50
2711b	721.4879	10	dummy	dr5	RIGHT	1.9037000000000717	0	0
2711b	737.0296	10	CET	c1_m3	RIGHT	1.9379999999999882	80	2
2711b	753.8213	10	CET	m1_c2	RIGHT	2.1702999999999975	10	10
2711c	5.7908	10	CET	c4_m2	LEFT	2.4090999999999996	50	40
2711c	20.8325	10	CET	c1_m1	RIGHT	2.6874000000000002	10	2
2711c	36.1326	10	dummy	dl0	LEFT	2.6113	0	0
2711c	51.1653	10	CET	m5_c2	LEFT	4.418599999999998	120	10
2711c	66.9576	10	CET	c3_m5	LEFT	2.6022999999999996	120	25
2711c	83.2493	10	CET	m0_c2	RIGHT	1.7905999999999977	0	10
2711c	99.541	10	CET	c5_m0	LEFT	2.042900000000003	0	50
2711c	114.5821	10	dummy	dr0	RIGHT	2.1617999999999995	0	0
2711c	130.6244	10	CET	m4_c5	RIGHT	3.4793999999999983	100	50
2711c	147.4161	10	CET	c3_m2	RIGHT	4.94380000000001	50	25
2711c	162.9578	10	CET	m1_c3	RIGHT	1.1620000000000061	10	25
2711c	178.0078	10	dummy	dl1	RIGHT	1.632000000000005	0	0
2711c	193.0495	10	CET	c0_m0	RIGHT	4.694299999999998	0	0
2711c	208.3412	10	CET	c4_m1	LEFT	1.962600000000009	10	40
2711c	224.8829	10	CET	m4_c3	LEFT	2.740899999999982	100	25
2711c	240.924	10	dummy	dr1	RIGHT	1.5397999999999854	0	0
2711c	256.7162	10	CET	c5_m5	LEFT	3.7076000000000136	120	50
2711c	273.0079	10	CET	m1_c0	LEFT	2.711900000000014	10	0
2711c	290.0491	10	dummy	dr3	RIGHT	2.230700000000013	0	0
2711c	306.5908	10	CET	m3_c3	RIGHT	5.6650000000000205	80	25
2711c	322.8913	10	CET	m3_c5	RIGHT	3.28449999999998	80	50
2711c	338.1914	10	CET	m2_c1	LEFT	2.544399999999996	50	2
2711c	354.7164	10	CET	c1_m0	LEFT	2.043299999999988	0	2
2711c	371.7575	10	dummy	dr2	RIGHT	3.04219999999998	0	0
2711c	387.7993	10	CET	m2_c2	LEFT	5.456399999999974	50	10
2711c	403.3498	10	CET	m4_c0	LEFT	2.929899999999975	100	0
2711c	418.8915	10	CET	c0_m5	RIGHT	2.4441999999999666	120	0
2711c	435.1915	10	dummy	dl3	LEFT	1.664199999999994	0	0
2711c	451.9743	10	CET	m4_c1	LEFT	2.401399999999967	100	2
2711c	467.2749	10	CET	c4_m4	LEFT	3.484800000000007	100	40
2711c	483.3166	10	dummy	dl2	LEFT	1.7631000000000085	0	0
2711c	498.3494	10	CET	c0_m2	RIGHT	2.3863000000000056	50	0
2711c	514.8917	10	CET	c4_m3	LEFT	3.2678999999999405	80	40
2711c	530.6834	10	CET	m5_c4	LEFT	3.8361999999999625	120	40
2711c	546.4834	10	CET	c4_m0	LEFT	2.1562000000000126	0	40
2711c	561.5328	10	dummy	dl4	LEFT	2.266800000000103	0	0
2711c	578.3251	10	CET	c2_m4	RIGHT	2.2905999999999267	100	10
2711c	593.3668	10	CET	m5_c1	LEFT	2.008799999999951	120	2
2711c	609.9168	10	CET	c5_m1	LEFT	2.162800000000061	10	50
2711c	625.7085	10	dummy	dr4	RIGHT	2.0511000000000195	0	0
2711c	640.7502	10	CET	m0_c3	RIGHT	2.0254000000001042	0	25
2711c	657.5502	10	CET	c0_m3	RIGHT	2.505300000000034	80	0
2711c	674.3419	10	dummy	dl5	LEFT	2.2976999999999634	0	0
2711c	689.8919	10	CET	m3_c2	LEFT	3.3876999999999953	80	10
2711c	705.192	10	CET	m2_c5	RIGHT	1.7034999999999627	50	50
2711c	721.4837	10	dummy	dr5	RIGHT	2.0357999999999947	0	0
2711c	737.0254	10	CET	c1_m3	RIGHT	2.9101000000000568	80	2
2711c	753.8171	10	CET	m1_c2	RIGHT	1.9583999999999833	10	10
2711d	5.7899	10	CET	c4_m2	LEFT	2.7861000000000002	50	40
2711d	20.8321	10	CET	c1_m1	LEFT	4.1678999999999995	10	2
2711d	36.1233	10	dummy	dl0	LEFT	4.316699999999997	0	0
2711d	51.1655	10	CET	m5_c2	LEFT	3.4345	120	10
2711d	66.9572	10	CET	c3_m5	RIGHT	4.338800000000006	120	25
2711d	83.2489	10	CET	m0_c2	RIGHT	3.6310999999999893	0	10
2711d	99.5406	10	CET	c5_m0	LEFT	3.0353999999999957	0	50
2711d	114.5822	10	dummy	dr0	RIGHT	3.2338000000000022	0	0
2711d	130.6233	10	CET	m4_c5	RIGHT	7.096599999999995	100	50
2711d	147.4156	10	CET	c3_m2	LEFT	3.840299999999985	50	25
2711d	162.9573	10	CET	m1_c3	RIGHT	3.378600000000006	10	25
2711d	177.999	10	dummy	dl1	LEFT	2.5209000000000117	0	0
2711d	193.0407	10	CET	c0_m0	LEFT	3.5352000000000032	0	0
2711d	208.3324	10	CET	c4_m1	LEFT	2.3234999999999957	10	40
2711d	224.8735	10	CET	m4_c3	LEFT	3.5023999999999944	100	25
2711d	240.9158	10	dummy	dr1	RIGHT	3.8440999999999974	0	0
2711d	256.707	10	CET	c5_m5	RIGHT	4.308800000000019	120	50
2711d	272.9992	10	CET	m1_c0	LEFT	7.93670000000003	10	0
2711d	290.0409	10	dummy	dr3	LEFT	1.6149999999999523	0	0
2711d	306.5826	10	CET	m3_c3	LEFT	4.793200000000013	80	25
2711d	322.8826	10	CET	m3_c5	RIGHT	2.893199999999979	80	50
2711d	338.1826	10	CET	m2_c1	RIGHT	3.6572000000000457	50	2
2711d	354.7326	10	CET	c1_m0	LEFT	2.1632000000000176	0	2
2711d	371.7653	10	dummy	dr2	RIGHT	1.2904999999999518	0	0
2711d	387.8077	10	CET	m2_c2	RIGHT	3.5120999999999754	50	10
2711d	403.3494	10	CET	m4_c0	LEFT	2.690400000000011	100	0
2711d	418.8911	10	CET	c0_m5	RIGHT	2.9487000000000307	120	0
2711d	435.1828	10	dummy	dl3	LEFT	3.0570000000000164	0	0
2711d	451.9745	10	CET	m4_c1	LEFT	2.3613000000000284	100	2
2711d	467.2661	10	CET	c4_m4	RIGHT	6.28570000000002	100	40
2711d	483.3078	10	dummy	dl2	LEFT	3.107900000000029	0	0
2711d	498.349	10	CET	c0_m2	RIGHT	3.6426999999999907	50	0
2711d	514.8912	10	CET	c4_m3	LEFT	3.524499999999989	80	40
2711d	530.6829	10	CET	m5_c4	LEFT	2.692800000000034	120	40
2711d	546.4746	10	CET	c4_m0	LEFT	1.8211000000000013	0	40
2711d	561.5163	10	dummy	dl4	LEFT	1.8193999999999733	0	0
2711d	578.3074	10	CET	c2_m4	RIGHT	2.668299999999931	100	10
2711d	593.3497	10	CET	m5_c1	LEFT	2.6421000000000276	120	2
2711d	609.8914	10	CET	c5_m1	LEFT	2.2042999999999893	10	50
2711d	625.683	10	dummy	dr4	RIGHT	2.2527000000000044	0	0
2711d	640.7242	10	CET	m0_c3	RIGHT	2.891499999999951	0	25
2711d	657.5248	10	CET	c0_m3	RIGHT	2.650700000000029	80	0
2711d	674.3165	10	dummy	dl5	LEFT	2.4990999999999985	0	0
2711d	689.8832	10	CET	m3_c2	RIGHT	5.66840000000002	80	10
2711d	705.1832	10	CET	m2_c5	RIGHT	1.432399999999916	50	50
2711d	721.4666	10	dummy	dr5	RIGHT	2.285000000000082	0	0
2711d	737.0333	10	CET	c1_m3	RIGHT	2.42229999999995	80	2
2711d	753.8333	10	CET	m1_c2	RIGHT	1.9423000000000457	10	10
2711f	5.7942	10	CET	c4_m2	RIGHT	2.9657999999999998	50	40
2711f	20.8365	10	CET	c1_m1	RIGHT	4.787499999999998	10	2
2711f	36.1282	10	dummy	dl0	LEFT	2.9358000000000004	0	0
2711f	51.1693	10	CET	m5_c2	LEFT	2.294699999999999	120	10
2711f	66.9616	10	CET	c3_m5	RIGHT	2.142399999999995	120	25
2711f	83.2533	10	CET	m0_c2	RIGHT	4.210700000000003	0	10
2711f	99.545	10	CET	c5_m0	LEFT	2.6388999999999925	0	50
2711f	114.595	10	dummy	dr0	RIGHT	2.364999999999995	0	0
2711f	130.636	10	CET	m4_c5	LEFT	2.043700000000001	100	50
2711f	147.4284	10	CET	c3_m2	RIGHT	1.9314999999999998	50	25
2711f	162.9701	10	CET	m1_c3	RIGHT	1.8538000000000068	10	25
2711f	178.0112	10	dummy	dl1	LEFT	2.212699999999984	0	0
2711f	193.0535	10	CET	c0_m0	RIGHT	4.530399999999986	0	0
2711f	208.3452	10	CET	c4_m1	LEFT	5.614699999999999	10	40
2711f	224.8952	10	CET	m4_c3	LEFT	1.3687000000000182	100	25
2711f	240.9363	10	dummy	dr1	RIGHT	2.1676000000000215	0	0
2711f	256.7286	10	CET	c5_m5	RIGHT	1.7513000000000147	120	50
2711f	273.0286	10	CET	m1_c0	LEFT	1.5953000000000088	10	0
2711f	290.0697	10	dummy	dr3	RIGHT	1.626199999999983	0	0
2711f	306.612	10	CET	m3_c3	LEFT	0.963799999999992	80	25
2711f	322.9037	10	CET	m3_c5	LEFT	1.0320999999999572	80	50
2711f	338.1954	10	CET	m2_c1	LEFT	1.780399999999986	50	2
2711f	354.7371	10	CET	c1_m0	LEFT	2.6627000000000294	0	2
2711f	371.7782	10	dummy	dr2	RIGHT	2.197599999999966	0	0
2711f	387.8205	10	CET	m2_c2	LEFT	2.7153000000000134	50	10
2711f	403.3621	10	CET	m4_c0	LEFT	1.317700000000002	100	0
2711f	418.9122	10	CET	c0_m5	RIGHT	1.7676000000000158	120	0
2711f	435.2039	10	dummy	dl3	LEFT	2.371900000000039	0	0
2711f	451.9949	10	CET	m4_c1	LEFT	2.0448000000000093	100	2
2711f	467.2872	10	CET	c4_m4	RIGHT	2.4085000000000036	100	40
2711f	483.3373	10	dummy	dl2	LEFT	2.3583999999999605	0	0
2711f	498.3956	10	CET	c0_m2	RIGHT	2.1800999999999817	50	0
2711f	514.9373	10	CET	c4_m3	RIGHT	0.8783999999999423	80	40
2711f	530.7457	10	CET	m5_c4	LEFT	0.7899999999999636	120	40
2711f	546.529	10	CET	c4_m0	LEFT	1.7507000000000517	0	40
2711f	561.5702	10	dummy	dl4	LEFT	1.8695000000000164	0	0
2711f	578.3623	10	CET	c2_m4	RIGHT	1.637399999999957	100	10
2711f	593.4041	10	CET	m5_c1	LEFT	0.7716000000000349	120	2
2711f	609.9458	10	CET	c5_m1	LEFT	2.7099000000000615	10	50
2711f	625.7375	10	dummy	dr4	RIGHT	1.7182000000000244	0	0
2711f	640.7792	10	CET	m0_c3	RIGHT	1.9405000000000427	0	25
2711f	657.5709	10	CET	c0_m3	RIGHT	1.2047000000000025	80	0
2711f	674.3709	10	dummy	dl5	LEFT	1.7246999999999844	0	0
2711f	689.9126	10	CET	m3_c2	LEFT	0.7670000000000528	80	10
2711f	705.2043	10	CET	m2_c5	LEFT	3.731300000000033	50	50
2711f	721.496	10	dummy	dr5	RIGHT	2.223600000000033	0	0
2711f	737.0377	10	CET	c1_m3	RIGHT	1.6819000000000415	80	2
2711f	753.8294	10	CET	m1_c2	LEFT	1.5302000000000362	10	10
2711g	5.7994	10	CET	c4_m2	RIGHT	1.1604999999999999	50	40
2711g	20.8411	10	CET	c1_m1	RIGHT	1.3187999999999995	10	2
2711g	36.1328	10	dummy	dl0	LEFT	2.1631	0	0
2711g	51.1828	10	CET	m5_c2	LEFT	3.873100000000001	120	10
2711g	66.9745	10	CET	c3_m5	RIGHT	2.5454000000000008	120	25
2711g	83.2662	10	CET	m0_c2	LEFT	6.429699999999997	0	10
2711g	99.5579	10	CET	c5_m0	LEFT	2.3220000000000027	0	50
2711g	114.6074	10	dummy	dr0	RIGHT	2.2883999999999958	0	0
2711g	130.6496	10	CET	m4_c5	LEFT	2.870200000000011	100	50
2711g	147.4413	10	CET	c3_m2	RIGHT	1.9184999999999945	50	25
2711g	162.983	10	CET	m1_c3	LEFT	2.152799999999985	10	25
2711g	178.0247	10	dummy	dl1	LEFT	1.551099999999991	0	0
2711g	193.0747	10	CET	c0_m0	LEFT	6.845100000000002	0	0
2711g	208.3664	10	CET	c4_m1	RIGHT	1.9133999999999958	10	40
2711g	224.9164	10	CET	m4_c3	LEFT	1.5634999999999764	100	25
2711g	240.9581	10	dummy	dr1	RIGHT	1.5617000000000019	0	0
2711g	256.7492	10	CET	c5_m5	RIGHT	1.6266000000000531	120	50
2711g	273.0415	10	CET	m1_c0	LEFT	1.974300000000028	10	0
2711g	290.0825	10	dummy	dr3	RIGHT	1.2933000000000447	0	0
2711g	306.6243	10	CET	m3_c3	LEFT	2.1114000000000033	80	25
2711g	322.9166	10	CET	m3_c5	LEFT	1.4990999999999985	80	50
2711g	338.2166	10	CET	m2_c1	LEFT	1.3590999999999553	50	2
2711g	354.7583	10	CET	c1_m0	LEFT	2.6573999999999955	0	2
2711g	371.7995	10	dummy	dr2	RIGHT	1.9756999999999607	0	0
2711g	387.8411	10	CET	m2_c2	LEFT	1.6546000000000163	50	10
2711g	403.3834	10	CET	m4_c0	LEFT	2.152300000000025	100	0
2711g	418.9251	10	CET	c0_m5	RIGHT	1.98660000000001	120	0
2711g	435.2168	10	dummy	dl3	LEFT	1.7189000000000192	0	0
2711g	452.0085	10	CET	m4_c1	LEFT	1.247199999999964	100	2
2711g	467.3001	10	CET	c4_m4	RIGHT	2.4916000000000054	100	40
2711g	483.3418	10	dummy	dl2	LEFT	1.529800000000023	0	0
2711g	498.3829	10	CET	c0_m2	RIGHT	1.6327999999999747	50	0
2711g	514.9252	10	CET	c4_m3	RIGHT	1.4664000000000215	80	40
2711g	530.7169	10	CET	m5_c4	LEFT	0.8986999999999625	120	40
2711g	546.5086	10	CET	c4_m0	LEFT	2.147000000000048	0	40
2711g	561.5503	10	dummy	dl4	LEFT	2.161299999999983	0	0
2711g	578.342	10	CET	c2_m4	RIGHT	1.673599999999965	100	10
2711g	593.3837	10	CET	m5_c1	LEFT	1.231899999999996	120	2
2711g	609.9254	10	CET	c5_m1	RIGHT	1.8502000000000862	10	50
2711g	625.7171	10	dummy	dr4	RIGHT	1.538499999999999	0	0
2711g	640.7671	10	CET	m0_c3	RIGHT	2.3684999999999263	0	25
2711g	657.5588	10	CET	c0_m3	RIGHT	1.976699999999937	80	0
2711g	674.3505	10	dummy	dl5	LEFT	1.7849999999999682	0	0
2711g	689.8922	10	CET	m3_c2	LEFT	1.5232999999999493	80	10
2711g	705.1839	10	CET	m2_c5	LEFT	3.031600000000026	50	50
2711g	721.475	10	dummy	dr5	RIGHT	1.4764999999999873	0	0
2711g	737.0173	10	CET	c1_m3	RIGHT	1.7182000000000244	80	2
2711g	753.8089	10	CET	m1_c2	LEFT	1.2626000000000204	10	10
2711h	5.7882	10	CET	c4_m2	LEFT	1.9158	50	40
2711h	20.8388	10	CET	c1_m1	LEFT	2.3051999999999992	10	2
2711h	36.1297	10	dummy	dl0	LEFT	2.0702	0	0
2711h	51.1716	10	CET	m5_c2	RIGHT	2.0683000000000007	120	10
2711h	66.9638	10	CET	c3_m5	LEFT	1.8200999999999965	120	25
2711h	83.2555	10	CET	m0_c2	RIGHT	2.704400000000007	0	10
2711h	99.5472	10	CET	c5_m0	LEFT	2.1166999999999945	0	50
2711h	114.5883	10	dummy	dr0	RIGHT	1.691599999999994	0	0
2711h	130.6306	10	CET	m4_c5	RIGHT	2.249300000000005	100	50
2711h	147.4223	10	CET	c3_m2	LEFT	1.9215999999999838	50	25
2711h	162.964	10	CET	m1_c3	RIGHT	1.6759000000000128	10	25
2711h	178.0051	10	dummy	dl1	LEFT	1.7547999999999888	0	0
2711h	193.0474	10	CET	c0_m0	LEFT	4.2324999999999875	0	0
2711h	208.3474	10	CET	c4_m1	LEFT	2.2364000000000033	10	40
2711h	224.8891	10	CET	m4_c3	RIGHT	1.7906999999999869	100	25
2711h	240.9307	10	dummy	dr1	RIGHT	1.1731000000000051	0	0
2711h	256.7225	10	CET	c5_m5	LEFT	3.9412999999999556	120	50
2711h	273.0142	10	CET	m1_c0	RIGHT	7.025599999999997	10	0
2711h	290.0553	10	dummy	dr3	RIGHT	1.7845000000000368	0	0
2711h	306.5976	10	CET	m3_c3	RIGHT	1.706200000000024	80	25
2711h	322.8892	10	CET	m3_c5	RIGHT	1.9746000000000095	80	50
2711h	338.1809	10	CET	m2_c1	RIGHT	1.7548999999999637	50	2
2711h	354.7221	10	CET	c1_m0	LEFT	2.3736999999999853	0	2
2711h	371.7643	10	dummy	dr2	RIGHT	2.131500000000017	0	0
2711h	387.806	10	CET	m2_c2	RIGHT	2.8337999999999965	50	10
2711h	403.3477	10	CET	m4_c0	RIGHT	3.451999999999998	100	0
2711h	418.8977	10	CET	c0_m5	LEFT	2.758000000000038	120	0
2711h	435.1978	10	dummy	dl3	LEFT	2.537900000000036	0	0
2711h	451.9889	10	CET	m4_c1	RIGHT	1.5708000000000197	100	2
2711h	467.2806	10	CET	c4_m4	LEFT	1.855099999999993	100	40
2711h	483.3223	10	dummy	dl2	LEFT	1.9734000000000265	0	0
2711h	498.3645	10	CET	c0_m2	LEFT	2.6511999999999603	50	0
2711h	514.9062	10	CET	c4_m3	LEFT	2.5494999999999663	80	40
2711h	530.6979	10	CET	m5_c4	RIGHT	1.9977999999999838	120	40
2711h	546.4896	10	CET	c4_m0	LEFT	2.4461000000000013	0	40
2711h	561.5307	10	dummy	dl4	LEFT	1.8289999999999509	0	0
2711h	578.3225	10	CET	c2_m4	LEFT	2.317099999999982	100	10
2711h	593.3724	10	CET	m5_c1	RIGHT	1.907199999999989	120	2
2711h	609.9147	10	CET	c5_m1	LEFT	1.804899999999975	10	50
2711h	625.7064	10	dummy	dr4	RIGHT	2.1891999999999143	0	0
2711h	640.7481	10	CET	m0_c3	RIGHT	1.5475000000000136	0	25
2711h	657.5398	10	CET	c0_m3	LEFT	2.515800000000013	80	0
2711h	674.3315	10	dummy	dl5	LEFT	1.683999999999969	0	0
2711h	689.8726	10	CET	m3_c2	RIGHT	1.84699999999998	80	10
2711h	705.1649	10	CET	m2_c5	RIGHT	1.6906999999999925	50	50
2711h	721.4566	10	dummy	dr5	RIGHT	1.8390000000000555	0	0
2711h	736.9983	10	CET	c1_m3	LEFT	2.1772000000000844	80	2
2711h	753.7894	10	CET	m1_c2	RIGHT	1.570100000000025	10	10
2711i	5.7855	10	CET	c4_m2	LEFT	4.4385	50	40
2711i	20.8277	10	CET	c1_m1	LEFT	2.7163000000000004	10	2
2711i	36.1194	10	dummy	dl0	LEFT	2.160499999999999	0	0
2711i	51.1606	10	CET	m5_c2	LEFT	3.5593000000000004	120	10
2711i	66.9611	10	CET	c3_m5	LEFT	2.822800000000001	120	25
2711i	83.2528	10	CET	m0_c2	RIGHT	2.8111000000000104	0	10
2711i	99.5445	10	CET	c5_m0	LEFT	1.7353999999999985	0	50
2711i	114.5862	10	dummy	dr0	LEFT	2.317699999999988	0	0
2711i	130.6274	10	CET	m4_c5	RIGHT	3.6765000000000043	100	50
2711i	147.4196	10	CET	c3_m2	LEFT	2.8042999999999836	50	25
2711i	162.9696	10	CET	m1_c3	RIGHT	1.870299999999986	10	25
2711i	178.0108	10	dummy	dl1	RIGHT	1.853100000000012	0	0
2711i	193.053	10	CET	c0_m0	RIGHT	1.1067999999999927	0	0
2711i	208.353	10	CET	c4_m1	LEFT	2.486799999999988	10	40
2711i	224.8947	10	CET	m4_c3	LEFT	2.6251000000000033	100	25
2711i	240.9359	10	dummy	dr1	RIGHT	1.9839000000000055	0	0
2711i	256.7276	10	CET	c5_m5	LEFT	2.5681999999999903	120	50
2711i	273.0281	10	CET	m1_c0	LEFT	3.411699999999996	10	0
2711i	290.0693	10	dummy	dr3	RIGHT	1.5305000000000177	0	0
2711i	306.611	10	CET	m3_c3	RIGHT	3.004799999999989	80	25
2711i	322.9032	10	CET	m3_c5	RIGHT	1.656599999999969	80	50
2711i	338.1949	10	CET	m2_c1	LEFT	2.0609000000000037	50	2
2711i	354.7366	10	CET	c1_m0	LEFT	1.7591999999999643	0	2
2711i	371.7777	10	dummy	dr2	RIGHT	1.5579999999999927	0	0
2711i	387.8283	10	CET	m2_c2	RIGHT	2.731400000000008	50	10
2711i	403.37	10	CET	m4_c0	LEFT	1.949700000000007	100	0
2711i	418.9117	10	CET	c0_m5	RIGHT	3.1440000000000055	120	0
2711i	435.2034	10	dummy	dl3	LEFT	2.116300000000024	0	0
2711i	451.9946	10	CET	m4_c1	LEFT	3.181100000000015	100	2
2711i	467.2868	10	CET	c4_m4	LEFT	2.352899999999977	100	40
2711i	483.328	10	dummy	dl2	LEFT	2.2077000000000453	0	0
2711i	498.3785	10	CET	c0_m2	RIGHT	2.557200000000023	50	0
2711i	514.9202	10	CET	c4_m3	LEFT	1.6954999999999245	80	40
2711i	530.7119	10	CET	m5_c4	RIGHT	1.3836999999999762	120	40
2711i	546.5036	10	CET	c4_m0	LEFT	2.1119999999999663	0	40
2711i	561.5453	10	dummy	dl4	LEFT	1.9903000000000475	0	0
2711i	578.3364	10	CET	c2_m4	LEFT	2.119199999999978	100	10
2711i	593.387	10	CET	m5_c1	RIGHT	2.628600000000006	120	2
2711i	609.9204	10	CET	c5_m1	LEFT	1.4791999999999916	10	50
2711i	625.7204	10	dummy	dr4	RIGHT	1.8392000000000053	0	0
2711i	640.7621	10	CET	m0_c3	RIGHT	1.8374999999999773	0	25
2711i	657.5538	10	CET	c0_m3	RIGHT	2.4617999999999256	80	0
2711i	674.3455	10	dummy	dl5	LEFT	1.670099999999934	0	0
2711i	689.8948	10	CET	m3_c2	RIGHT	2.080799999999954	80	10
2711i	705.1955	10	CET	m2_c5	RIGHT	2.1400999999999613	50	50
2711i	721.4955	10	dummy	dr5	RIGHT	2.159999999999968	0	0
2711i	737.0456	10	CET	c1_m3	LEFT	1.8659000000000106	80	2
2711i	753.8373	10	CET	m1_c2	RIGHT	2.3541999999999916	10	10
2811c	5.7894	10	CET	c4_m2	LEFT	3.770600000000001	50	40
2811c	20.8311	10	CET	c1_m1	LEFT	3.6647999999999996	10	2
2811c	36.1312	10	dummy	dl0	LEFT	4.284700000000001	0	0
2811c	51.164	10	CET	m5_c2	LEFT	1.9159000000000006	120	10
2811c	66.9562	10	CET	c3_m5	RIGHT	2.3397000000000077	120	25
2811c	83.2562	10	CET	m0_c2	RIGHT	2.1196999999999946	0	10
2811c	99.5562	10	CET	c5_m0	LEFT	3.355699999999999	0	50
2811c	114.5979	10	dummy	dr0	RIGHT	2.578000000000003	0	0
2811c	130.6396	10	CET	m4_c5	LEFT	2.5363000000000113	100	50
2811c	147.4397	10	CET	c3_m2	RIGHT	4.135600000000011	50	25
2811c	162.998	10	CET	m1_c3	RIGHT	1.7138000000000204	10	25
2811c	178.0397	10	dummy	dl1	LEFT	2.3120999999999867	0	0
2811c	193.0814	10	CET	c0_m0	RIGHT	5.790400000000005	0	0
2811c	208.3731	10	CET	c4_m1	LEFT	3.258800000000008	10	40
2811c	224.9142	10	CET	m4_c3	LEFT	2.7575999999999965	100	25
2811c	240.9565	10	dummy	dr1	RIGHT	2.259299999999996	0	0
2811c	256.7475	10	CET	c5_m5	RIGHT	2.1082999999999856	120	50
2811c	273.0392	10	CET	m1_c0	LEFT	2.5126000000000204	10	0
2811c	290.0815	10	dummy	dr3	RIGHT	1.814300000000003	0	0
2811c	306.6226	10	CET	m3_c3	LEFT	2.7532000000000494	80	25
2811c	322.9149	10	CET	m3_c5	LEFT	5.1568000000000325	80	50
2811c	338.2066	10	CET	m2_c1	LEFT	2.6491000000000327	50	2
2811c	354.7483	10	CET	c1_m0	LEFT	2.2434000000000083	0	2
2811c	371.7894	10	dummy	dr2	RIGHT	2.1462999999999965	0	0
2811c	387.831	10	CET	m2_c2	LEFT	2.6246999999999616	50	10
2811c	403.39	10	CET	m4_c0	LEFT	2.161699999999996	100	0
2811c	418.9311	10	CET	c0_m5	RIGHT	2.8845999999999776	120	0
2811c	435.2234	10	dummy	dl3	LEFT	2.248299999999972	0	0
2811c	452.0145	10	CET	m4_c1	LEFT	2.2971999999999753	100	2
2811c	467.3068	10	CET	c4_m4	RIGHT	2.068899999999985	100	40
2811c	483.348	10	dummy	dl2	LEFT	2.7635999999999967	0	0
2811c	498.3895	10	CET	c0_m2	RIGHT	2.2422000000000253	50	0
2811c	514.9319	10	CET	c4_m3	RIGHT	3.723799999999983	80	40
2811c	530.7236	10	CET	m5_c4	LEFT	2.812000000000012	120	40
2811c	546.5147	10	CET	c4_m0	LEFT	2.3969000000000733	0	40
2811c	561.5569	10	dummy	dl4	LEFT	2.5786999999999125	0	0
2811c	578.3486	10	CET	c2_m4	RIGHT	2.44279999999992	100	10
2811c	593.3986	10	CET	m5_c1	LEFT	2.3530000000000655	120	2
2811c	609.9398	10	CET	c5_m1	LEFT	2.8278000000000247	10	50
2811c	625.732	10	dummy	dr4	RIGHT	2.715599999999995	0	0
2811c	640.7737	10	CET	m0_c3	RIGHT	2.193899999999985	0	25
2811c	657.5654	10	CET	c0_m3	RIGHT	2.026200000000017	80	0
2811c	674.3571	10	dummy	dl5	LEFT	2.170500000000061	0	0
2811c	689.9155	10	CET	m3_c2	LEFT	2.1560000000000628	80	10
2811c	705.1988	10	CET	m2_c5	LEFT	2.9927000000000135	50	50
2811c	721.49	10	dummy	dr5	RIGHT	2.221499999999992	0	0
2811c	737.0406	10	CET	c1_m3	RIGHT	2.846900000000005	80	2
2811c	753.8239	10	CET	m1_c2	RIGHT	2.5833999999999833	10	10
2811d	5.786	10	CET	c4_m2	LEFT	3.0138999999999996	50	40
2811d	20.8285	10	CET	c1_m1	LEFT	4.8354000000000035	10	2
2811d	36.1285	10	dummy	dl0	LEFT	2.095399999999998	0	0
2811d	51.1785	10	CET	m5_c2	LEFT	8.0854	120	10
2811d	66.9702	10	CET	c3_m5	LEFT	3.909700000000001	120	25
2811d	83.2619	10	CET	m0_c2	RIGHT	1.6580000000000013	0	10
2811d	99.5531	10	CET	c5_m0	LEFT	1.1907999999999959	0	50
2811d	114.5953	10	dummy	dr0	LEFT	3.2846000000000117	0	0
2811d	130.6363	10	CET	m4_c5	RIGHT	1.5234999999999843	100	50
2811d	147.4287	10	CET	c3_m2	LEFT	2.4111000000000047	50	25
2811d	162.9703	10	CET	m1_c3	RIGHT	1.6935000000000002	10	25
2811d	178.0204	10	dummy	dl1	LEFT	2.4031999999999982	0	0
2811d	193.0621	10	CET	c0_m0	RIGHT	3.8977000000000146	0	0
2811d	208.3454	10	CET	c4_m1	LEFT	2.8543999999999983	10	40
2811d	224.8871	10	CET	m4_c3	RIGHT	4.89670000000001	100	25
2811d	240.9371	10	dummy	dr1	RIGHT	2.7027000000000214	0	0
2811d	256.7205	10	CET	c5_m5	RIGHT	3.623299999999972	120	50
2811d	273.0122	10	CET	m1_c0	LEFT	3.2275999999999954	10	0
2811d	290.0533	10	dummy	dr3	RIGHT	2.0264000000000237	0	0
2811d	306.5956	10	CET	m3_c3	RIGHT	4.204200000000014	80	25
2811d	322.8873	10	CET	m3_c5	RIGHT	2.7124000000000024	80	50
2811d	338.1789	10	CET	m2_c1	LEFT	5.900800000000004	50	2
2811d	354.7206	10	CET	c1_m0	LEFT	4.958900000000028	0	2
2811d	371.7701	10	dummy	dr2	RIGHT	2.173599999999965	0	0
2811d	387.8118	10	CET	m2_c2	RIGHT	5.131899999999973	50	10
2811d	403.354	10	CET	m4_c0	LEFT	2.54970000000003	100	0
2811d	418.8957	10	CET	c0_m5	RIGHT	2.584000000000003	120	0
2811d	435.1874	10	dummy	dl3	LEFT	2.532299999999964	0	0
2811d	451.9875	10	CET	m4_c1	LEFT	3.5722000000000094	100	2
2811d	467.2708	10	CET	c4_m4	LEFT	2.824799999999982	100	40
2811d	483.3119	10	dummy	dl2	LEFT	3.06370000000004	0	0
2811d	498.3536	10	CET	c0_m2	RIGHT	2.2860000000000014	50	0
2811d	514.8959	10	CET	c4_m3	LEFT	2.199700000000007	80	40
2811d	530.6959	10	CET	m5_c4	RIGHT	6.143799999999942	120	40
2811d	546.4959	10	CET	c4_m0	LEFT	2.3596999999999753	0	40
2811d	561.5371	10	dummy	dl4	LEFT	3.582499999999982	0	0
2811d	578.3287	10	CET	c2_m4	RIGHT	8.126199999999926	100	10
2811d	593.3704	10	CET	m5_c1	LEFT	3.2451999999999543	120	2
2811d	609.9127	10	CET	c5_m1	LEFT	1.4628999999999905	10	50
2811d	625.7044	10	dummy	dr4	RIGHT	1.911200000000008	0	0
2811d	640.7461	10	CET	m0_c3	RIGHT	1.7335000000000491	0	25
2811d	657.5378	10	CET	c0_m3	RIGHT	2.061800000000062	80	0
2811d	674.3373	10	dummy	dl5	LEFT	2.3181999999999334	0	0
2811d	689.8878	10	CET	m3_c2	RIGHT	4.471700000000055	80	10
2811d	705.1795	10	CET	m2_c5	RIGHT	1.2200000000000273	50	50
2811d	721.4712	10	dummy	dr5	RIGHT	2.0243000000000393	0	0
2811d	737.0129	10	CET	c1_m3	RIGHT	1.7866000000000213	80	2
2811d	753.804	10	CET	m1_c2	RIGHT	2.611499999999978	10	10
2811e	5.7868	10	CET	c4_m2	LEFT	4.877199999999999	50	40
2811e	20.8368	10	CET	c1_m1	RIGHT	3.5230999999999995	10	2
2811e	36.1285	10	dummy	dl0	LEFT	1.7511999999999972	0	0
2811e	51.1791	10	CET	m5_c2	LEFT	4.204799999999999	120	10
2811e	66.9791	10	CET	c3_m5	RIGHT	6.620800000000003	120	25
2811e	83.2702	10	CET	m0_c2	RIGHT	3.713700000000003	0	10
2811e	99.5625	10	CET	c5_m0	LEFT	4.1174000000000035	0	50
2811e	114.6119	10	dummy	dr0	RIGHT	2.10799999999999	0	0
2811e	130.6619	10	CET	m4_c5	RIGHT	3.3220000000000027	100	50
2811e	147.4542	10	CET	c3_m2	LEFT	6.369700000000023	50	25
2811e	162.9959	10	CET	m1_c3	RIGHT	2.587999999999994	10	25
2811e	178.0371	10	dummy	dl1	LEFT	1.7227999999999781	0	0
2811e	193.096	10	CET	c0_m0	LEFT	4.863900000000001	0	0
2811e	208.3877	10	CET	c4_m1	LEFT	2.7321000000000026	10	40
2811e	224.921	10	CET	m4_c3	LEFT	3.382800000000003	100	25
2811e	240.9627	10	dummy	dr1	RIGHT	1.341099999999983	0	0
2811e	256.7539	10	CET	c5_m5	RIGHT	7.485900000000015	120	50
2811e	273.0544	10	CET	m1_c0	LEFT	4.281400000000019	10	0
2811e	290.0961	10	dummy	dr3	RIGHT	2.143700000000024	0	0
2811e	306.6378	10	CET	m3_c3	RIGHT	6.377999999999986	80	25
2811e	322.9378	10	CET	m3_c5	RIGHT	4.398000000000025	80	50
2811e	338.2462	10	CET	m2_c1	LEFT	2.3296000000000276	50	2
2811e	354.7962	10	CET	c1_m0	LEFT	2.5235999999999876	0	2
2811e	371.8374	10	dummy	dr2	RIGHT	1.4583000000000084	0	0
2811e	387.879	10	CET	m2_c2	LEFT	7.2806999999999675	50	10
2811e	403.438	10	CET	m4_c0	LEFT	3.1217000000000326	100	0
2811e	418.988	10	CET	c0_m5	RIGHT	5.267699999999991	120	0
2811e	435.2713	10	dummy	dl3	LEFT	1.648399999999981	0	0
2811e	452.0624	10	CET	m4_c1	LEFT	5.29729999999995	100	2
2811e	467.3547	10	CET	c4_m4	LEFT	2.021000000000015	100	40
2811e	483.3959	10	dummy	dl2	LEFT	1.4598000000000297	0	0
2811e	498.4376	10	CET	c0_m2	RIGHT	5.018100000000004	50	0
2811e	514.9881	10	CET	c4_m3	LEFT	2.2916000000000167	80	40
2811e	530.771	10	CET	m5_c4	LEFT	5.5487000000000535	120	40
2811e	546.5632	10	CET	c4_m0	LEFT	1.8764999999999645	0	40
2811e	561.6132	10	dummy	dl4	LEFT	1.586500000000001	0	0
2811e	578.4049	10	CET	c2_m4	RIGHT	5.890700000000038	100	10
2811e	593.4466	10	CET	m5_c1	LEFT	2.072999999999979	120	2
2811e	609.9883	10	CET	c5_m1	LEFT	4.691300000000069	10	50
2811e	625.7877	10	dummy	dr4	RIGHT	1.3718999999999824	0	0
2811e	640.83	10	CET	m0_c3	RIGHT	2.409599999999955	0	25
2811e	657.63	10	CET	c0_m3	RIGHT	3.0896000000000186	80	0
2811e	674.4134	10	dummy	dl5	LEFT	2.6662000000000035	0	0
2811e	689.9544	10	CET	m3_c2	LEFT	7.965199999999982	80	10
2811e	705.2551	10	CET	m2_c5	RIGHT	1.9605000000000246	50	50
2811e	721.5462	10	dummy	dr5	RIGHT	1.8134000000000015	0	0
2811e	737.0879	10	CET	c1_m3	RIGHT	2.5276000000000067	80	2
2811e	753.8885	10	CET	m1_c2	RIGHT	2.7830000000000155	10	10
2811f	5.7932	10	CET	c4_m2	LEFT	3.022800000000001	50	40
2811f	20.8433	10	CET	c1_m1	RIGHT	6.5167	10	2
2811f	36.135	10	dummy	dl0	LEFT	2.561	0	0
2811f	51.1767	10	CET	m5_c2	RIGHT	3.263300000000001	120	10
2811f	66.9683	10	CET	c3_m5	LEFT	2.3676999999999992	120	25
2811f	83.2767	10	CET	m0_c2	RIGHT	2.7631999999999977	0	10
2811f	99.5767	10	CET	c5_m0	LEFT	5.479199999999992	0	50
2811f	114.6095	10	dummy	dr0	RIGHT	3.710400000000007	0	0
2811f	130.6518	10	CET	m4_c5	RIGHT	7.324099999999987	100	50
2811f	147.4435	10	CET	c3_m2	LEFT	8.71629999999999	50	25
2811f	162.9852	10	CET	m1_c3	LEFT	6.014700000000005	10	25
2811f	178.0268	10	dummy	dl1	LEFT	2.4690999999999974	0	0
2811f	193.0685	10	CET	c0_m0	LEFT	2.29140000000001	0	0
2811f	208.3602	10	CET	c4_m1	RIGHT	2.615700000000004	10	40
2811f	224.9103	10	CET	m4_c3	LEFT	4.505599999999987	100	25
2811f	240.9519	10	dummy	dr1	LEFT	3.4240000000000066	0	0
2811f	256.7436	10	CET	c5_m5	RIGHT	7.312199999999962	120	50
2811f	273.0353	10	CET	m1_c0	RIGHT	1.8845000000000027	10	0
2811f	290.0765	10	dummy	dr3	LEFT	3.33929999999998	0	0
2811f	306.6182	10	CET	m3_c3	LEFT	4.5976	80	25
2811f	322.9104	10	CET	m3_c5	LEFT	5.129400000000032	80	50
2811f	338.2021	10	CET	m2_c1	RIGHT	2.133700000000033	50	2
2811f	354.7438	10	CET	c1_m0	RIGHT	2.9119999999999777	0	2
2811f	371.7849	10	dummy	dr2	RIGHT	2.7749000000000024	0	0
2811f	387.8355	10	CET	m2_c2	RIGHT	4.444299999999998	50	10
2811f	403.3766	10	CET	m4_c0	RIGHT	2.639099999999985	100	0
2811f	418.9189	10	CET	c0_m5	LEFT	2.4168999999999983	120	0
2811f	435.2106	10	dummy	dl3	LEFT	4.005200000000002	0	0
2811f	452.0017	10	CET	m4_c1	RIGHT	2.3579999999999472	100	2
2811f	467.3023	10	CET	c4_m4	RIGHT	4.433400000000006	100	40
2811f	483.3435	10	dummy	dl2	RIGHT	1.8081999999999994	0	0
2811f	498.3857	10	CET	c0_m2	LEFT	3.725999999999999	50	0
2811f	514.9274	10	CET	c4_m3	RIGHT	3.744299999999953	80	40
2811f	530.7274	10	CET	m5_c4	LEFT	4.344299999999976	120	40
2811f	546.5191	10	CET	c4_m0	RIGHT	2.616600000000062	0	40
2811f	561.5601	10	dummy	dl4	RIGHT	1.7916000000000167	0	0
2811f	578.3603	10	CET	c2_m4	RIGHT	4.3753999999999	100	10
2811f	593.4025	10	CET	m5_c1	RIGHT	2.7332000000000107	120	2
2811f	609.9442	10	CET	c5_m1	RIGHT	3.7913999999999533	10	50
2811f	625.7359	10	dummy	dr4	LEFT	5.135699999999929	0	0
2811f	640.7776	10	CET	m0_c3	LEFT	3.1580000000000155	0	25
2811f	657.5693	10	CET	c0_m3	LEFT	3.102300000000014	80	0
2811f	674.361	10	dummy	dl5	LEFT	2.310600000000022	0	0
2811f	689.9021	10	CET	m3_c2	RIGHT	4.849500000000035	80	10
2811f	705.2027	10	CET	m2_c5	LEFT	3.2128999999999905	50	50
2811f	721.4861	10	dummy	dr5	LEFT	3.6895000000000664	0	0
2811f	737.0361	10	CET	c1_m3	LEFT	3.65949999999998	80	2
2811f	753.8194	10	CET	m1_c2	LEFT	3.252200000000016	10	10
2811g	5.7975	10	CET	c4_m2	LEFT	2.2984999999999998	50	40
2811g	20.8308	10	CET	c1_m1	LEFT	2.5852000000000004	10	2
2811g	36.1219	10	dummy	dl0	LEFT	1.4141000000000048	0	0
2811g	51.1637	10	CET	m5_c2	LEFT	3.1322000000000045	120	10
2811g	66.9559	10	CET	c3_m5	LEFT	3.8840000000000003	120	25
2811g	83.2559	10	CET	m0_c2	RIGHT	2.240000000000009	0	10
2811g	99.5385	10	CET	c5_m0	LEFT	2.1174000000000035	0	50
2811g	114.5804	10	dummy	dr0	RIGHT	1.2355000000000018	0	0
2811g	130.6221	10	CET	m4_c5	RIGHT	2.2978000000000236	100	50
2811g	147.4144	10	CET	c3_m2	LEFT	2.8814999999999884	50	25
2811g	162.9561	10	CET	m1_c3	RIGHT	1.8037999999999954	10	25
2811g	177.9977	10	dummy	dl1	LEFT	1.282199999999989	0	0
2811g	193.0394	10	CET	c0_m0	LEFT	4.040500000000009	0	0
2811g	208.3311	10	CET	c4_m1	LEFT	1.9887999999999977	10	40
2811g	224.8728	10	CET	m4_c3	RIGHT	3.159099999999995	100	25
2811g	240.9139	10	dummy	dr1	RIGHT	0.9578999999999951	0	0
2811g	256.7229	10	CET	c5_m5	LEFT	3.2128999999999905	120	50
2811g	273.0062	10	CET	m1_c0	RIGHT	3.5855999999999995	10	0
2811g	290.0479	10	dummy	dr3	RIGHT	0.863900000000001	0	0
2811g	306.5974	10	CET	m3_c3	RIGHT	1.9384000000000015	80	25
2811g	322.898	10	CET	m3_c5	RIGHT	1.7337999999999738	80	50
2811g	338.1813	10	CET	m2_c1	RIGHT	2.1544999999999845	50	2
2811g	354.723	10	CET	c1_m0	LEFT	1.6528000000000134	0	2
2811g	371.7814	10	dummy	dr2	RIGHT	1.0503999999999678	0	0
2811g	387.8231	10	CET	m2_c2	RIGHT	1.8326999999999884	50	10
2811g	403.3648	10	CET	m4_c0	RIGHT	4.866899999999987	100	0
2811g	418.9065	10	CET	c0_m5	RIGHT	2.189200000000028	120	0
2811g	435.1976	10	dummy	dl3	LEFT	1.0740999999999872	0	0
2811g	451.9899	10	CET	m4_c1	RIGHT	1.585800000000006	100	2
2811g	467.2815	10	CET	c4_m4	LEFT	1.6141999999999825	100	40
2811g	483.3227	10	dummy	dl2	LEFT	1.7490000000000236	0	0
2811g	498.3644	10	CET	c0_m2	LEFT	1.627299999999991	50	0
2811g	514.9066	10	CET	c4_m3	LEFT	1.5891000000000304	80	40
2811g	530.6983	10	CET	m5_c4	RIGHT	1.8134000000000015	120	40
2811g	546.49	10	CET	c4_m0	LEFT	1.9817000000000462	0	40
2811g	561.5312	10	dummy	dl4	LEFT	2.0045000000000073	0	0
2811g	578.3317	10	CET	c2_m4	LEFT	1.5640000000000782	100	10
2811g	593.3734	10	CET	m5_c1	RIGHT	2.09820000000002	120	2
2811g	609.9151	10	CET	c5_m1	LEFT	1.9564999999998918	10	50
2811g	625.7062	10	dummy	dr4	RIGHT	1.8854000000000042	0	0
2811g	640.7568	10	CET	m0_c3	RIGHT	1.9948000000000548	0	25
2811g	657.5485	10	CET	c0_m3	LEFT	1.723100000000045	80	0
2811g	674.3402	10	dummy	dl5	LEFT	1.211400000000026	0	0
2811g	689.8819	10	CET	m3_c2	RIGHT	1.469699999999989	80	10
2811g	705.1736	10	CET	m2_c5	RIGHT	1.4420000000000073	50	50
2811g	721.4647	10	dummy	dr5	RIGHT	0.870900000000006	0	0
2811g	737.0153	10	CET	c1_m3	LEFT	1.3922999999999774	80	2
2811g	753.8153	10	CET	m1_c2	RIGHT	1.4963000000000193	10	10
2911e	5.7908	10	CET	c4_m2	RIGHT	5.545100000000001	50	40
2911e	20.8331	10	CET	c1_m1	LEFT	4.342799999999997	10	2
2911e	36.1242	10	dummy	dl0	LEFT	2.3156999999999996	0	0
2911e	51.1664	10	CET	m5_c2	LEFT	4.713499999999996	120	10
2911e	66.9581	10	CET	c3_m5	RIGHT	4.8577999999999975	120	25
2911e	83.2498	10	CET	m0_c2	RIGHT	5.590100000000007	0	10
2911e	99.5415	10	CET	c5_m0	LEFT	5.074399999999997	0	50
2911e	114.5832	10	dummy	dr0	RIGHT	4.192699999999988	0	0
2911e	130.6249	10	CET	m4_c5	LEFT	4.431000000000012	100	50
2911e	147.4166	10	CET	c3_m2	RIGHT	6.799200000000013	50	25
2911e	162.9583	10	CET	m1_c3	RIGHT	4.537599999999998	10	25
2911e	178.016	10	dummy	dl1	LEFT	2.9196000000000026	0	0
2911e	193.0583	10	CET	c0_m0	LEFT	6.91749999999999	0	0
2911e	208.375	10	CET	c4_m1	LEFT	4.720799999999997	10	40
2911e	224.9	10	CET	m4_c3	LEFT	4.579800000000006	100	25
2911e	240.9495	10	dummy	dr1	RIGHT	3.3223000000000127	0	0
2911e	256.7418	10	CET	c5_m5	RIGHT	4.170000000000016	120	50
2911e	273.0329	10	CET	m1_c0	LEFT	6.222900000000038	10	0
2911e	290.0751	10	dummy	dr3	RIGHT	2.9166999999999916	0	0
2911e	306.6163	10	CET	m3_c3	LEFT	3.135499999999979	80	25
2911e	322.9085	10	CET	m3_c5	LEFT	6.107300000000009	80	50
2911e	338.2002	10	CET	m2_c1	LEFT	4.9114999999999895	50	2
2911e	354.7414	10	CET	c1_m0	LEFT	5.4343000000000075	0	2
2911e	371.7913	10	dummy	dr2	RIGHT	3.384400000000028	0	0
2911e	387.8336	10	CET	m2_c2	LEFT	6.118100000000027	50	10
2911e	403.3753	10	CET	m4_c0	LEFT	4.240400000000022	100	0
2911e	418.9253	10	CET	c0_m5	RIGHT	4.93040000000002	120	0
2911e	435.217	10	dummy	dl3	LEFT	2.8547000000000367	0	0
2911e	452.0082	10	CET	m4_c1	LEFT	4.063500000000033	100	2
2911e	467.3004	10	CET	c4_m4	RIGHT	7.09129999999999	100	40
2911e	483.3415	10	dummy	dl2	LEFT	3.4501999999999953	0	0
2911e	498.3832	10	CET	c0_m2	RIGHT	5.952499999999986	50	0
2911e	514.9255	10	CET	c4_m3	RIGHT	6.0260999999999285	80	40
2911e	530.7165	10	CET	m5_c4	LEFT	4.355199999999968	120	40
2911e	546.5089	10	CET	c4_m0	LEFT	5.346699999999942	0	40
2911e	561.5506	10	dummy	dl4	LEFT	3.36099999999999	0	0
2911e	578.3417	10	CET	c2_m4	RIGHT	4.729900000000043	100	10
2911e	593.3834	10	CET	m5_c1	LEFT	4.168299999999931	120	2
2911e	609.9256	10	CET	c5_m1	LEFT	7.329999999999927	10	50
2911e	625.7167	10	dummy	dr4	RIGHT	3.978900000000067	0	0
2911e	640.759	10	CET	m0_c3	RIGHT	4.992600000000039	0	25
2911e	657.559	10	CET	c0_m3	RIGHT	4.576599999999985	80	0
2911e	674.3502	10	dummy	dl5	LEFT	2.6814000000000533	0	0
2911e	689.8919	10	CET	m3_c2	LEFT	4.099699999999984	80	10
2911e	705.1841	10	CET	m2_c5	LEFT	4.6474000000000615	50	50
2911e	721.4753	10	dummy	dr5	RIGHT	2.2362000000000535	0	0
2911e	737.0175	10	CET	c1_m3	RIGHT	3.8139999999999645	80	2
2911e	753.8092	10	CET	m1_c2	RIGHT	6.958300000000008	10	10
2911f	5.7978	10	CET	c4_m2	RIGHT	4.4822	50	40
2911f	20.84	10	CET	c1_m1	LEFT	5.080000000000002	10	2
2911f	36.14	10	dummy	dl0	LEFT	1.9399000000000015	0	0
2911f	51.1817	10	CET	m5_c2	LEFT	2.4983000000000004	120	10
2911f	66.9984	10	CET	c3_m5	RIGHT	2.241500000000002	120	25
2911f	83.2818	10	CET	m0_c2	RIGHT	2.0220999999999947	0	10
2911f	99.5735	10	CET	c5_m0	LEFT	2.6504000000000048	0	50
2911f	114.6151	10	dummy	dr0	RIGHT	2.1287999999999982	0	0
2911f	130.6562	10	CET	m4_c5	LEFT	2.4876999999999896	100	50
2911f	147.448	10	CET	c3_m2	RIGHT	3.31189999999998	50	25
2911f	163.0069	10	CET	m1_c3	RIGHT	3.1769999999999925	10	25
2911f	178.0569	10	dummy	dl1	LEFT	1.822999999999979	0	0
2911f	193.0903	10	CET	c0_m0	LEFT	6.5335999999999785	0	0
2911f	208.382	10	CET	c4_m1	LEFT	4.001800000000003	10	40
2911f	224.9236	10	CET	m4_c3	LEFT	1.8362999999999943	100	25
2911f	240.9648	10	dummy	dr1	RIGHT	2.2350000000000136	0	0
2911f	256.7565	10	CET	c5_m5	RIGHT	3.067299999999989	120	50
2911f	273.0487	10	CET	m1_c0	LEFT	2.2311000000000263	10	0
2911f	290.0982	10	dummy	dr3	RIGHT	2.4055999999999926	0	0
2911f	306.6488	10	CET	m3_c3	LEFT	3.4150000000000205	80	25
2911f	322.9321	10	CET	m3_c5	LEFT	3.2117000000000075	80	50
2911f	338.2238	10	CET	m2_c1	LEFT	2.2560000000000286	50	2
2911f	354.765	10	CET	c1_m0	LEFT	2.3548000000000116	0	2
2911f	371.8066	10	dummy	dr2	RIGHT	2.5930999999999926	0	0
2911f	387.8489	10	CET	m2_c2	LEFT	3.3508999999999673	50	10
2911f	403.3901	10	CET	m4_c0	LEFT	2.489599999999996	100	0
2911f	418.9323	10	CET	c0_m5	RIGHT	1.4915000000000305	120	0
2911f	435.2323	10	dummy	dl3	LEFT	2.391399999999976	0	0
2911f	452.0234	10	CET	m4_c1	LEFT	3.152300000000025	100	2
2911f	467.324	10	CET	c4_m4	RIGHT	3.2916999999999916	100	40
2911f	483.3657	10	dummy	dl2	LEFT	1.8340000000000032	0	0
2911f	498.4069	10	CET	c0_m2	RIGHT	2.1528000000000134	50	0
2911f	514.9491	10	CET	c4_m3	RIGHT	2.850599999999986	80	40
2911f	530.7403	10	CET	m5_c4	LEFT	1.5953999999999269	120	40
2911f	546.5318	10	CET	c4_m0	LEFT	1.787900000000036	0	40
2911f	561.5742	10	dummy	dl4	LEFT	2.1614999999999327	0	0
2911f	578.3659	10	CET	c2_m4	RIGHT	2.1698000000000093	100	10
2911f	593.4076	10	CET	m5_c1	LEFT	1.7521000000000413	120	2
2911f	609.9493	10	CET	c5_m1	LEFT	2.8903000000000247	10	50
2911f	625.7403	10	dummy	dr4	RIGHT	2.2352999999999383	0	0
2911f	640.7826	10	CET	m0_c3	RIGHT	2.2970000000000255	0	25
2911f	657.5743	10	CET	c0_m3	RIGHT	2.0412999999999784	80	0
2911f	674.366	10	dummy	dl5	LEFT	2.673599999999965	0	0
2911f	689.9072	10	CET	m3_c2	LEFT	2.2122000000000526	80	10
2911f	705.2078	10	CET	m2_c5	LEFT	6.327800000000025	50	50
2911f	721.4989	10	dummy	dr5	RIGHT	2.34069999999997	0	0
2911f	737.0411	10	CET	c1_m3	RIGHT	2.0784999999999627	80	2
2911f	753.8412	10	CET	m1_c2	RIGHT	4.398400000000038	10	10
2911g	5.7907	10	CET	c4_m2	LEFT	5.7052000000000005	50	40
2911g	20.8415	10	CET	c1_m1	LEFT	8.078399999999998	10	2
2911g	36.1327	10	dummy	dl0	LEFT	1.843200000000003	0	0
2911g	51.1748	10	CET	m5_c2	LEFT	3.4650999999999996	120	10
2911g	66.9665	10	CET	c3_m5	RIGHT	3.2734000000000094	120	25
2911g	83.2666	10	CET	m0_c2	RIGHT	3.229300000000009	0	10
2911g	99.5583	10	CET	c5_m0	LEFT	3.0416000000000025	0	50
2911g	114.5994	10	dummy	dr0	RIGHT	1.200499999999991	0	0
2911g	130.6495	10	CET	m4_c5	LEFT	3.646300000000025	100	50
2911g	147.441	10	CET	c3_m2	RIGHT	6.294899999999984	50	25
2911g	162.9917	10	CET	m1_c3	RIGHT	1.2880999999999858	10	25
2911g	178.0334	10	dummy	dl1	LEFT	1.622399999999999	0	0
2911g	193.0834	10	CET	c0_m0	RIGHT	4.276399999999995	0	0
2911g	208.3918	10	CET	c4_m1	LEFT	2.048000000000002	10	40
2911g	224.9168	10	CET	m4_c3	LEFT	2.6829999999999927	100	25
2911g	240.9578	10	dummy	dr1	RIGHT	1.921999999999997	0	0
2911g	256.7496	10	CET	c5_m5	RIGHT	5.506200000000035	120	50
2911g	273.0419	10	CET	m1_c0	LEFT	3.2538999999999874	10	0
2911g	290.0836	10	dummy	dr3	RIGHT	1.7322000000000344	0	0
2911g	306.6253	10	CET	m3_c3	LEFT	4.294500000000028	80	25
2911g	322.9169	10	CET	m3_c5	RIGHT	6.642899999999997	80	50
2911g	338.2086	10	CET	m2_c1	LEFT	2.1111000000000217	50	2
2911g	354.7503	10	CET	c1_m0	LEFT	4.0493999999999915	0	2
2911g	371.7914	10	dummy	dr2	RIGHT	2.2402999999999906	0	0
2911g	387.8332	10	CET	m2_c2	LEFT	4.782500000000027	50	10
2911g	403.3748	10	CET	m4_c0	LEFT	2.696900000000028	100	0
2911g	418.9254	10	CET	c0_m5	RIGHT	2.4102999999999497	120	0
2911g	435.2255	10	dummy	dl3	LEFT	2.0061999999999784	0	0
2911g	452.0082	10	CET	m4_c1	LEFT	1.9435000000000286	100	2
2911g	467.3172	10	CET	c4_m4	RIGHT	5.834499999999991	100	40
2911g	483.3583	10	dummy	dl2	LEFT	1.3374000000000024	0	0
2911g	498.4	10	CET	c0_m2	RIGHT	2.351100000000031	50	0
2911g	514.9423	10	CET	c4_m3	RIGHT	7.593299999999999	80	40
2911g	530.734	10	CET	m5_c4	LEFT	2.0015999999999394	120	40
2911g	546.5256	10	CET	c4_m0	LEFT	1.8099999999999454	0	40
2911g	561.5668	10	dummy	dl4	LEFT	1.5448000000000093	0	0
2911g	578.359	10	CET	c2_m4	RIGHT	2.2165999999999713	100	10
2911g	593.4007	10	CET	m5_c1	LEFT	2.350900000000024	120	2
2911g	609.9424	10	CET	c5_m1	LEFT	1.633199999999988	10	50
2911g	625.7335	10	dummy	dr4	RIGHT	1.4420999999999822	0	0
2911g	640.7752	10	CET	m0_c3	RIGHT	2.1363999999999805	0	25
2911g	657.5675	10	CET	c0_m3	RIGHT	1.7840999999999667	80	0
2911g	674.3586	10	dummy	dl5	LEFT	2.2730000000000246	0	0
2911g	689.9003	10	CET	m3_c2	LEFT	2.6911999999999807	80	10
2911g	705.1926	10	CET	m2_c5	RIGHT	4.078899999999976	50	50
2911g	721.492	10	dummy	dr5	RIGHT	1.4835000000000491	0	0
2911g	737.0426	10	CET	c1_m3	RIGHT	2.4288999999999987	80	2
2911g	753.8343	10	CET	m1_c2	RIGHT	3.6771999999999707	10	10
2911h	5.7901	10	CET	c4_m2	RIGHT	1.4499000000000004	50	40
2911h	20.8313	10	CET	c1_m1	LEFT	2.8887	10	2
2911h	36.1235	10	dummy	dl0	LEFT	1.9324000000000012	0	0
2911h	51.1645	10	CET	m5_c2	LEFT	2.1555000000000035	120	10
2911h	66.9563	10	CET	c3_m5	RIGHT	2.019599999999997	120	25
2911h	83.2481	10	CET	m0_c2	RIGHT	2.1518000000000086	0	10
2911h	99.5397	10	CET	c5_m0	LEFT	1.556200000000004	0	50
2911h	114.5814	10	dummy	dr0	RIGHT	1.778499999999994	0	0
2911h	130.6236	10	CET	m4_c5	LEFT	2.512299999999982	100	50
2911h	147.4153	10	CET	c3_m2	LEFT	1.9846000000000004	50	25
2911h	162.957	10	CET	m1_c3	RIGHT	1.8829000000000065	10	25
2911h	177.9981	10	dummy	dl1	LEFT	2.657800000000009	0	0
2911h	193.0404	10	CET	c0_m0	LEFT	2.7194999999999823	0	0
2911h	208.3398	10	CET	c4_m1	LEFT	2.5960000000000036	10	40
2911h	224.8816	10	CET	m4_c3	LEFT	2.0942000000000007	100	25
2911h	240.9233	10	dummy	dr1	RIGHT	2.132499999999993	0	0
2911h	256.7149	10	CET	c5_m5	RIGHT	2.644900000000007	120	50
2911h	273.0072	10	CET	m1_c0	LEFT	2.128600000000006	10	0
2911h	290.0482	10	dummy	dr3	RIGHT	2.4875999999999863	0	0
2911h	306.5906	10	CET	m3_c3	LEFT	2.4651999999999816	80	25
2911h	322.8906	10	CET	m3_c5	LEFT	2.525199999999984	80	50
2911h	338.199	10	CET	m2_c1	LEFT	2.7601999999999975	50	2
2911h	354.7235	10	CET	c1_m0	LEFT	2.1562999999999874	0	2
2911h	371.7651	10	dummy	dr2	RIGHT	2.194699999999955	0	0
2911h	387.8157	10	CET	m2_c2	LEFT	2.424000000000035	50	10
2911h	403.3574	10	CET	m4_c0	LEFT	2.0424000000000433	100	0
2911h	418.8991	10	CET	c0_m5	RIGHT	1.8366000000000327	120	0
2911h	435.1908	10	dummy	dl3	LEFT	2.224899999999991	0	0
2911h	451.9819	10	CET	m4_c1	LEFT	2.113800000000026	100	2
2911h	467.2825	10	CET	c4_m4	RIGHT	2.38919999999996	100	40
2911h	483.332	10	dummy	dl2	LEFT	2.403700000000015	0	0
2911h	498.3737	10	CET	c0_m2	RIGHT	1.7220000000000368	50	0
2911h	514.9159	10	CET	c4_m3	RIGHT	1.6198000000000548	80	40
2911h	530.7076	10	CET	m5_c4	LEFT	2.748100000000022	120	40
2911h	546.4993	10	CET	c4_m0	LEFT	2.0124000000000706	0	40
2911h	561.5404	10	dummy	dl4	LEFT	1.9311999999999898	0	0
2911h	578.3321	10	CET	c2_m4	RIGHT	2.1795000000000755	100	10
2911h	593.3744	10	CET	m5_c1	LEFT	1.5611999999999853	120	2
2911h	609.9154	10	CET	c5_m1	LEFT	1.9002000000000407	10	50
2911h	625.7072	10	dummy	dr4	RIGHT	1.1884000000000015	0	0
2911h	640.7495	10	CET	m0_c3	RIGHT	1.6020999999999503	0	25
2911h	657.5412	10	CET	c0_m3	RIGHT	1.770399999999995	80	0
2911h	674.3329	10	dummy	dl5	LEFT	1.9627000000000407	0	0
2911h	689.874	10	CET	m3_c2	LEFT	2.2615999999999303	80	10
2911h	705.1662	10	CET	m2_c5	RIGHT	2.5054000000000087	50	50
2911h	721.4574	10	dummy	dr5	RIGHT	2.01419999999996	0	0
2911h	736.9996	10	CET	c1_m3	RIGHT	2.05600000000004	80	2
2911h	753.7997	10	CET	m1_c2	RIGHT	2.175799999999981	10	10
2911i	5.7929	10	CET	c4_m2	RIGHT	2.271	50	40
2911i	20.8341	10	CET	c1_m1	RIGHT	2.325800000000001	10	2
2911i	36.1257	10	dummy	dl0	LEFT	1.7941999999999965	0	0
2911i	51.1673	10	CET	m5_c2	LEFT	3.256600000000006	120	10
2911i	66.9597	10	CET	c3_m5	RIGHT	2.9602000000000004	120	25
2911i	83.2508	10	CET	m0_c2	RIGHT	4.069100000000006	0	10
2911i	99.5431	10	CET	c5_m0	LEFT	2.216700000000003	0	50
2911i	114.5925	10	dummy	dr0	RIGHT	2.2313999999999936	0	0
2911i	130.6342	10	CET	m4_c5	LEFT	1.8295999999999992	100	50
2911i	147.4265	10	CET	c3_m2	RIGHT	2.0932999999999993	50	25
2911i	162.9765	10	CET	m1_c3	LEFT	2.0633000000000266	10	25
2911i	178.0175	10	dummy	dl1	LEFT	2.286299999999983	0	0
2911i	193.0599	10	CET	c0_m0	LEFT	4.723900000000015	0	0
2911i	208.3516	10	CET	c4_m1	RIGHT	2.952200000000005	10	40
2911i	224.8933	10	CET	m4_c3	LEFT	2.5464999999999804	100	25
2911i	240.935	10	dummy	dr1	RIGHT	2.1448000000000036	0	0
2911i	256.7261	10	CET	c5_m5	RIGHT	2.3377000000000407	120	50
2911i	273.0178	10	CET	m1_c0	LEFT	2.1819999999999595	10	0
2911i	290.0595	10	dummy	dr3	RIGHT	1.8602999999999952	0	0
2911i	306.6012	10	CET	m3_c3	LEFT	1.9184999999999945	80	25
2911i	322.9018	10	CET	m3_c5	LEFT	1.641900000000021	80	50
2911i	338.1935	10	CET	m2_c1	LEFT	1.7262000000000057	50	2
2911i	354.7346	10	CET	c1_m0	LEFT	2.865099999999984	0	2
2911i	371.7763	10	dummy	dr2	RIGHT	1.6634000000000242	0	0
2911i	387.8185	10	CET	m2_c2	LEFT	1.4612000000000194	50	10
2911i	403.3602	10	CET	m4_c0	LEFT	1.2235000000000014	100	0
2911i	418.9019	10	CET	c0_m5	RIGHT	2.161799999999971	120	0
2911i	435.2103	10	dummy	dl3	LEFT	1.7894000000000005	0	0
2911i	452.002	10	CET	m4_c1	LEFT	1.573699999999974	100	2
2911i	467.2937	10	CET	c4_m4	RIGHT	1.5620000000000118	100	40
2911i	483.3432	10	dummy	dl2	LEFT	1.6563999999999623	0	0
2911i	498.3932	10	CET	c0_m2	RIGHT	1.8624000000000365	50	0
2911i	514.9354	10	CET	c4_m3	RIGHT	2.1602000000000317	80	40
2911i	530.7271	10	CET	m5_c4	LEFT	1.6084000000000742	120	40
2911i	546.5188	10	CET	c4_m0	LEFT	2.816699999999969	0	40
2911i	561.5599	10	dummy	dl4	LEFT	1.5996999999999844	0	0
2911i	578.3516	10	CET	c2_m4	RIGHT	2.2240000000000464	100	10
2911i	593.3939	10	CET	m5_c1	LEFT	1.365699999999947	120	2
2911i	609.9351	10	CET	c5_m1	RIGHT	1.8004999999999427	10	50
2911i	625.7273	10	dummy	dr4	RIGHT	1.568300000000022	0	0
2911i	640.7856	10	CET	m0_c3	RIGHT	1.990000000000009	0	25
2911i	657.5773	10	CET	c0_m3	RIGHT	1.9021999999999935	80	0
2911i	674.369	10	dummy	dl5	LEFT	2.486599999999953	0	0
2911i	689.9107	10	CET	m3_c2	LEFT	2.56880000000001	80	10
2911i	705.2024	10	CET	m2_c5	LEFT	2.1170999999999367	50	50
2911i	721.5024	10	dummy	dr5	RIGHT	2.233100000000036	0	0
2911i	737.0441	10	CET	c1_m3	RIGHT	2.291300000000092	80	2
2911i	753.8358	10	CET	m1_c2	LEFT	1.9237000000000535	10	10
3011a	5.8009	10	CET	c4_m2	LEFT	2.0150999999999994	50	40
3011a	20.8343	10	CET	c1_m1	RIGHT	7.101700000000001	10	2
3011a	36.1254	10	dummy	dl0	LEFT	2.0106000000000037	0	0
3011a	51.1671	10	CET	m5_c2	LEFT	6.752900000000004	120	10
3011a	66.9588	10	CET	c3_m5	LEFT	1.5211000000000041	120	25
3011a	83.251	10	CET	m0_c2	RIGHT	2.6850000000000023	0	10
3011a	99.5594	10	CET	c5_m0	LEFT	1.9605000000000103	0	50
3011a	114.6006	10	dummy	dr0	RIGHT	1.7993000000000023	0	0
3011a	130.6428	10	CET	m4_c5	RIGHT	2.173100000000005	100	50
3011a	147.4344	10	CET	c3_m2	LEFT	3.085499999999996	50	25
3011a	162.9761	10	CET	m1_c3	RIGHT	1.7437999999999931	10	25
3011a	178.0173	10	dummy	dl1	LEFT	1.502600000000001	0	0
3011a	193.0595	10	CET	c0_m0	LEFT	5.220399999999984	0	0
3011a	208.3595	10	CET	c4_m1	LEFT	1.5364000000000146	10	40
3011a	224.9095	10	CET	m4_c3	RIGHT	1.3863999999999805	100	25
3011a	240.9507	10	dummy	dr1	RIGHT	1.5211999999999932	0	0
3011a	256.7422	10	CET	c5_m5	LEFT	1.3935999999999922	120	50
3011a	273.0346	10	CET	m1_c0	LEFT	3.3811999999999784	10	0
3011a	290.0758	10	dummy	dr3	RIGHT	1.2760000000000105	0	0
3011a	306.6174	10	CET	m3_c3	RIGHT	2.558400000000006	80	25
3011a	322.918	10	CET	m3_c5	RIGHT	1.2337999999999738	80	50
3011a	338.218	10	CET	m2_c1	RIGHT	5.037800000000004	50	2
3011a	354.7597	10	CET	c1_m0	LEFT	1.952099999999973	0	2
3011a	371.8009	10	dummy	dr2	RIGHT	1.790899999999965	0	0
3011a	387.8425	10	CET	m2_c2	RIGHT	1.6293000000000006	50	10
3011a	403.3848	10	CET	m4_c0	LEFT	2.5669000000000324	100	0
3011a	418.9265	10	CET	c0_m5	RIGHT	3.0253000000000156	120	0
3011a	435.2177	10	dummy	dl3	LEFT	1.9341000000000008	0	0
3011a	452.0099	10	CET	m4_c1	LEFT	6.061800000000005	100	2
3011a	467.3016	10	CET	c4_m4	LEFT	1.730099999999993	100	40
3011a	483.3432	10	dummy	dl2	LEFT	1.888499999999965	0	0
3011a	498.3849	10	CET	c0_m2	RIGHT	2.2708000000000084	50	0
3011a	514.9266	10	CET	c4_m3	LEFT	1.3051000000000386	80	40
3011a	530.7183	10	CET	m5_c4	RIGHT	1.377399999999966	120	40
3011a	546.5094	10	CET	c4_m0	LEFT	1.5063000000000102	0	40
3011a	561.56	10	dummy	dl4	LEFT	1.2317000000000462	0	0
3011a	578.3428	10	CET	c2_m4	LEFT	4.63289999999995	100	10
3011a	593.3851	10	CET	m5_c1	LEFT	2.406600000000026	120	2
3011a	609.9268	10	CET	c5_m1	LEFT	1.464800000000082	10	50
3011a	625.7435	10	dummy	dr4	RIGHT	1.632099999999923	0	0
3011a	640.7851	10	CET	m0_c3	RIGHT	1.3504999999998972	0	25
3011a	657.5763	10	CET	c0_m3	RIGHT	3.055300000000102	80	0
3011a	674.3685	10	dummy	dl5	LEFT	1.6230999999999085	0	0
3011a	689.9096	10	CET	m3_c2	RIGHT	4.826000000000022	80	10
3011a	705.2019	10	CET	m2_c5	RIGHT	1.2536999999999807	50	50
3011a	721.4936	10	dummy	dr5	RIGHT	1.5539999999999736	0	0
3011a	737.0353	10	CET	c1_m3	RIGHT	5.4923	80	2
3011a	753.8353	10	CET	m1_c2	RIGHT	2.07630000000006	10	10
3011b	5.7947	10	CET	c4_m2	RIGHT	5.8853	50	40
3011b	20.8453	10	CET	c1_m1	LEFT	4.714699999999997	10	2
3011b	36.1286	10	dummy	dl0	LEFT	5.007400000000004	0	0
3011b	51.1698	10	CET	m5_c2	LEFT	3.7261999999999986	120	10
3011b	66.962	10	CET	c3_m5	RIGHT	6.253999999999991	120	25
3011b	83.2531	10	CET	m0_c2	RIGHT	5.362799999999993	0	10
3011b	99.5454	10	CET	c5_m0	LEFT	3.3345000000000056	0	50
3011b	114.5871	10	dummy	dr0	RIGHT	2.7327999999999975	0	0
3011b	130.6371	10	CET	m4_c5	LEFT	7.498799999999989	100	50
3011b	147.4288	10	CET	c3_m2	RIGHT	7.0271000000000186	50	25
3011b	162.9705	10	CET	m1_c3	RIGHT	1.9254000000000246	10	25
3011b	178.0199	10	dummy	dl1	LEFT	3.9000000000000057	0	0
3011b	193.0705	10	CET	c0_m0	RIGHT	8.50539999999998	0	0
3011b	208.3789	10	CET	c4_m1	LEFT	3.261000000000024	10	40
3011b	224.92	10	CET	m4_c3	LEFT	4.0959	100	25
3011b	240.9623	10	dummy	dr1	RIGHT	1.917599999999993	0	0
3011b	256.7623	10	CET	c5_m5	RIGHT	6.2934999999999945	120	50
3011b	273.0534	10	CET	m1_c0	LEFT	2.9063999999999623	10	0
3011b	290.0957	10	dummy	dr3	RIGHT	2.400099999999952	0	0
3011b	306.6374	10	CET	m3_c3	LEFT	6.698399999999992	80	25
3011b	322.929	10	CET	m3_c5	LEFT	6.766800000000046	80	50
3011b	338.2207	10	CET	m2_c1	LEFT	1.9950999999999794	50	2
3011b	354.7619	10	CET	c1_m0	LEFT	3.373899999999992	0	2
3011b	371.8035	10	dummy	dr2	RIGHT	2.388300000000015	0	0
3011b	387.8458	10	CET	m2_c2	LEFT	3.8899999999999864	50	10
3011b	403.4042	10	CET	m4_c0	LEFT	3.6515999999999735	100	0
3011b	418.9459	10	CET	c0_m5	RIGHT	3.2857999999999947	120	0
3011b	435.2292	10	dummy	dl3	LEFT	3.5464999999999804	0	0
3011b	452.0203	10	CET	m4_c1	LEFT	2.731400000000008	100	2
3011b	467.3126	10	CET	c4_m4	NONE	10.0	100	40
3011b	483.3543	10	dummy	dl2	LEFT	2.637399999999957	0	0
3011b	498.3953	10	CET	c0_m2	RIGHT	1.9563999999999737	50	0
3011b	514.9377	10	CET	c4_m3	RIGHT	7.294000000000096	80	40
3011b	530.7294	10	CET	m5_c4	LEFT	2.1416999999999007	120	40
3011b	546.5204	10	CET	c4_m0	LEFT	2.071299999999951	0	40
3011b	561.5711	10	dummy	dl4	LEFT	2.284599999999955	0	0
3011b	578.3711	10	CET	c2_m4	RIGHT	3.580600000000004	100	10
3011b	593.4039	10	CET	m5_c1	LEFT	2.491800000000012	120	2
3011b	609.9545	10	CET	c5_m1	LEFT	2.2210999999999785	10	50
3011b	625.7373	10	dummy	dr4	RIGHT	1.8542999999999665	0	0
3011b	640.7795	10	CET	m0_c3	RIGHT	2.956099999999992	0	25
3011b	657.5712	10	CET	c0_m3	RIGHT	1.8844000000000278	80	0
3011b	674.3629	10	dummy	dl5	LEFT	2.3327000000000453	0	0
3011b	689.9046	10	CET	m3_c2	LEFT	4.471000000000004	80	10
3011b	705.1963	10	CET	m2_c5	RIGHT	2.3793000000000575	50	50
3011b	721.4874	10	dummy	dr5	RIGHT	1.744199999999978	0	0
3011b	737.0297	10	CET	c1_m3	RIGHT	2.161899999999946	80	2
3011b	753.8214	10	CET	m1_c2	RIGHT	3.6101999999999634	10	10
3011c	5.7907	10	CET	c4_m2	LEFT	2.233199999999999	50	40
3011c	20.8413	10	CET	c1_m1	RIGHT	3.3186999999999998	10	2
3011c	36.1408	10	dummy	dl0	RIGHT	3.1632000000000033	0	0
3011c	51.1997	10	CET	m5_c2	RIGHT	4.240299999999998	120	10
3011c	66.983	10	CET	c3_m5	LEFT	2.376899999999992	120	25
3011c	83.2747	10	CET	m0_c2	RIGHT	1.96520000000001	0	10
3011c	99.5664	10	CET	c5_m0	LEFT	2.9535000000000053	0	50
3011c	114.6075	10	dummy	dr0	RIGHT	2.8164000000000016	0	0
3011c	130.6498	10	CET	m4_c5	LEFT	3.974099999999993	100	50
3011c	147.4415	10	CET	c3_m2	LEFT	2.862400000000008	50	25
3011c	162.9832	10	CET	m1_c3	LEFT	3.640699999999981	10	25
3011c	178.0243	10	dummy	dl1	LEFT	1.8395999999999901	0	0
3011c	193.0666	10	CET	c0_m0	RIGHT	2.9573000000000036	0	0
3011c	208.3583	10	CET	c4_m1	LEFT	2.0015999999999963	10	40
3011c	224.8994	10	CET	m4_c3	RIGHT	3.404399999999981	100	25
3011c	240.9411	10	dummy	dr1	RIGHT	2.9787000000000035	0	0
3011c	256.7333	10	CET	c5_m5	LEFT	4.626500000000021	120	50
3011c	273.0245	10	CET	m1_c0	LEFT	3.415300000000002	10	0
3011c	290.0834	10	dummy	dr3	RIGHT	1.8763999999999896	0	0
3011c	306.6245	10	CET	m3_c3	LEFT	5.2712999999999965	80	25
3011c	322.9168	10	CET	m3_c5	RIGHT	2.138999999999953	80	50
3011c	338.2085	10	CET	m2_c1	RIGHT	3.4472999999999843	50	2
3011c	354.7497	10	CET	c1_m0	LEFT	1.8260999999999967	0	2
3011c	371.7913	10	dummy	dr2	RIGHT	1.0085000000000264	0	0
3011c	387.8336	10	CET	m2_c2	RIGHT	3.2461999999999875	50	10
3011c	403.3753	10	CET	m4_c0	LEFT	3.7205000000000155	100	0
3011c	418.9169	10	CET	c0_m5	RIGHT	2.018799999999999	120	0
3011c	435.2086	10	dummy	dl3	LEFT	2.1111000000000217	0	0
3011c	451.9998	10	CET	m4_c1	RIGHT	2.3999000000000024	100	2
3011c	467.292	10	CET	c4_m4	LEFT	1.643700000000024	100	40
3011c	483.3415	10	dummy	dl2	LEFT	1.8982000000000312	0	0
3011c	498.3837	10	CET	c0_m2	RIGHT	2.8560000000000514	50	0
3011c	514.9254	10	CET	c4_m3	LEFT	1.6503000000000156	80	40
3011c	530.7171	10	CET	m5_c4	RIGHT	3.2186000000000377	120	40
3011c	546.5088	10	CET	c4_m0	LEFT	1.4669000000000096	0	40
3011c	561.55	10	dummy	dl4	LEFT	1.969699999999989	0	0
3011c	578.3589	10	CET	c2_m4	LEFT	2.120800000000031	100	10
3011c	593.3922	10	CET	m5_c1	RIGHT	2.1435000000000173	120	2
3011c	609.9422	10	CET	c5_m1	LEFT	1.9533999999999878	10	50
3011c	625.7339	10	dummy	dr4	RIGHT	1.5217000000000098	0	0
3011c	640.7673	10	CET	m0_c3	RIGHT	1.7123000000000275	0	25
3011c	657.5673	10	CET	c0_m3	RIGHT	3.0722999999999274	80	0
3011c	674.359	10	dummy	dl5	LEFT	1.9761999999999489	0	0
3011c	689.909	10	CET	m3_c2	RIGHT	2.9306000000000267	80	10
3011c	705.1924	10	CET	m2_c5	RIGHT	1.7031999999999243	50	50
3011c	721.4835	10	dummy	dr5	RIGHT	1.7720999999999094	0	0
3011c	737.0253	10	CET	c1_m3	LEFT	2.21429999999998	80	2
3011c	753.8175	10	CET	m1_c2	RIGHT	2.0780999999999494	10	10
3011d	5.7908	10	CET	c4_m2	LEFT	1.2492	50	40
3011d	20.8414	10	CET	c1_m1	LEFT	1.4146	10	2
3011d	36.1325	10	dummy	dl0	LEFT	1.7235000000000014	0	0
3011d	51.1748	10	CET	m5_c2	RIGHT	1.5852000000000004	120	10
3011d	66.9665	10	CET	c3_m5	LEFT	1.409400000000005	120	25
3011d	83.2582	10	CET	m0_c2	RIGHT	3.036999999999992	0	10
3011d	99.5499	10	CET	c5_m0	LEFT	2.210000000000008	0	50
3011d	114.5915	10	dummy	dr0	RIGHT	2.440399999999997	0	0
3011d	130.6327	10	CET	m4_c5	RIGHT	2.2231999999999914	100	50
3011d	147.4249	10	CET	c3_m2	LEFT	2.287000000000006	50	25
3011d	162.9666	10	CET	m1_c3	RIGHT	1.4492999999999938	10	25
3011d	178.0083	10	dummy	dl1	LEFT	1.1436000000000206	0	0
3011d	193.0583	10	CET	c0_m0	LEFT	2.7335999999999956	0	0
3011d	208.3417	10	CET	c4_m1	LEFT	1.6341999999999928	10	40
3011d	224.8834	10	CET	m4_c3	LEFT	1.4525000000000148	100	25
3011d	240.9245	10	dummy	dr1	RIGHT	1.8273000000000081	0	0
3011d	256.7162	10	CET	c5_m5	RIGHT	2.3555999999999813	120	50
3011d	273.0085	10	CET	m1_c0	LEFT	3.8232999999999606	10	0
3011d	290.0502	10	dummy	dr3	RIGHT	2.0055999999999585	0	0
3011d	306.6085	10	CET	m3_c3	LEFT	2.543299999999988	80	25
3011d	322.8919	10	CET	m3_c5	RIGHT	1.8038999999999987	80	50
3011d	338.1919	10	CET	m2_c1	LEFT	2.783900000000017	50	2
3011d	354.7336	10	CET	c1_m0	LEFT	1.4821999999999775	0	2
3011d	371.7753	10	dummy	dr2	RIGHT	1.9364999999999668	0	0
3011d	387.8164	10	CET	m2_c2	RIGHT	2.1994000000000256	50	10
3011d	403.3581	10	CET	m4_c0	LEFT	1.3137000000000398	100	0
3011d	418.9004	10	CET	c0_m5	RIGHT	1.3552999999999997	120	0
3011d	435.1921	10	dummy	dl3	LEFT	1.7837000000000103	0	0
3011d	451.9921	10	CET	m4_c1	LEFT	1.7596000000000345	100	2
3011d	467.2921	10	CET	c4_m4	LEFT	2.003600000000006	100	40
3011d	483.325	10	dummy	dl2	LEFT	1.6906999999999925	0	0
3011d	498.3666	10	CET	c0_m2	RIGHT	1.5851000000000113	50	0
3011d	514.9172	10	CET	c4_m3	LEFT	2.3145000000000664	80	40
3011d	530.7166	10	CET	m5_c4	LEFT	2.0751000000000204	120	40
3011d	546.5089	10	CET	c4_m0	LEFT	1.9067999999999756	0	40
3011d	561.5583	10	dummy	dl4	LEFT	1.5774000000000115	0	0
3011d	578.3501	10	CET	c2_m4	RIGHT	2.705600000000004	100	10
3011d	593.3923	10	CET	m5_c1	LEFT	1.7833000000000538	120	2
3011d	609.934	10	CET	c5_m1	LEFT	1.6017000000000507	10	50
3011d	625.7257	10	dummy	dr4	RIGHT	1.8659000000000106	0	0
3011d	640.7674	10	CET	m0_c3	RIGHT	1.9042000000000598	0	25
3011d	657.5591	10	CET	c0_m3	RIGHT	1.3285000000000764	80	0
3011d	674.3508	10	dummy	dl5	LEFT	1.9207999999999856	0	0
3011d	689.892	10	CET	m3_c2	RIGHT	2.2195999999999003	80	10
3011d	705.1842	10	CET	m2_c5	RIGHT	1.9273999999999205	50	50
3011d	721.4753	10	dummy	dr5	RIGHT	1.916300000000092	0	0
3011d	737.017	10	CET	c1_m3	RIGHT	2.4145999999999503	80	2
3011d	753.8092	10	CET	m1_c2	RIGHT	3.078399999999988	10	10
3011e	5.7921	10	CET	c4_m2	LEFT	2.1679000000000004	50	40
3011e	20.8343	10	CET	c1_m1	LEFT	2.285700000000002	10	2
3011e	36.1259	10	dummy	dl0	LEFT	2.0741000000000014	0	0
3011e	51.176	10	CET	m5_c2	LEFT	4.704000000000001	120	10
3011e	66.9677	10	CET	c3_m5	LEFT	1.3922000000000025	120	25
3011e	83.2589	10	CET	m0_c2	RIGHT	2.557000000000002	0	10
3011e	99.5594	10	CET	c5_m0	LEFT	1.7205000000000013	0	50
3011e	114.6094	10	dummy	dr0	RIGHT	1.9505000000000052	0	0
3011e	130.6511	10	CET	m4_c5	RIGHT	2.084099999999978	100	50
3011e	147.4421	10	CET	c3_m2	LEFT	1.7737999999999943	50	25
3011e	162.9845	10	CET	m1_c3	RIGHT	2.2154000000000167	10	25
3011e	178.0262	10	dummy	dl1	LEFT	1.629700000000014	0	0
3011e	193.0679	10	CET	c0_m0	RIGHT	4.292000000000002	0	0
3011e	208.3596	10	CET	c4_m1	LEFT	1.8563000000000045	10	40
3011e	224.9013	10	CET	m4_c3	RIGHT	3.138500000000022	100	25
3011e	240.943	10	dummy	dr1	RIGHT	2.376899999999978	0	0
3011e	256.7347	10	CET	c5_m5	LEFT	3.161100000000033	120	50
3011e	273.0514	10	CET	m1_c0	LEFT	3.828399999999988	10	0
3011e	290.0841	10	dummy	dr3	RIGHT	1.8357000000000312	0	0
3011e	306.6259	10	CET	m3_c3	RIGHT	1.9338999999999942	80	25
3011e	322.9181	10	CET	m3_c5	RIGHT	1.3217000000000212	80	50
3011e	338.2181	10	CET	m2_c1	LEFT	3.9173000000000116	50	2
3011e	354.7598	10	CET	c1_m0	LEFT	2.0160000000000196	0	2
3011e	371.8265	10	dummy	dr2	RIGHT	1.429300000000012	0	0
3011e	387.8682	10	CET	m2_c2	RIGHT	3.3315999999999804	50	10
3011e	403.4093	10	CET	m4_c0	LEFT	2.6464000000000283	100	0
3011e	418.951	10	CET	c0_m5	RIGHT	1.8886999999999716	120	0
3011e	435.2427	10	dummy	dl3	LEFT	1.5971000000000117	0	0
3011e	452.0427	10	CET	m4_c1	LEFT	2.812999999999988	100	2
3011e	467.335	10	CET	c4_m4	LEFT	1.3847000000000094	100	40
3011e	483.376	10	dummy	dl2	LEFT	1.5597000000000207	0	0
3011e	498.4179	10	CET	c0_m2	RIGHT	1.3577999999999975	50	0
3011e	514.9601	10	CET	c4_m3	LEFT	3.3115999999999985	80	40
3011e	530.7518	10	CET	m5_c4	RIGHT	1.9039000000000215	120	40
3011e	546.5428	10	CET	c4_m0	LEFT	1.9128999999999223	0	40
3011e	561.5845	10	dummy	dl4	LEFT	1.407199999999989	0	0
3011e	578.3763	10	CET	c2_m4	LEFT	4.95939999999996	100	10
3011e	593.4185	10	CET	m5_c1	LEFT	1.8372000000000526	120	2
3011e	609.9686	10	CET	c5_m1	LEFT	1.4069999999999254	10	50
3011e	625.7596	10	dummy	dr4	RIGHT	1.6720000000000255	0	0
3011e	640.8019	10	CET	m0_c3	RIGHT	1.7896999999999252	0	25
3011e	657.593	10	CET	c0_m3	RIGHT	2.1586000000000922	80	0
3011e	674.3853	10	dummy	dl5	LEFT	1.550299999999993	0	0
3011e	689.927	10	CET	m3_c2	RIGHT	2.504599999999982	80	10
3011e	705.2187	10	CET	m2_c5	RIGHT	1.8369000000000142	50	50
3011e	721.5098	10	dummy	dr5	RIGHT	1.4657999999999447	0	0
3011e	737.0521	10	CET	c1_m3	RIGHT	3.8595000000000255	80	2
3011e	753.8432	10	CET	m1_c2	RIGHT	1.4284000000000106	10	10
3011f	5.7929	10	CET	c4_m2	LEFT	3.326999999999999	50	40
3011f	20.8351	10	CET	c1_m1	RIGHT	2.564799999999998	10	2
3011f	36.1262	10	dummy	dl0	LEFT	2.8095	0	0
3011f	51.1679	10	CET	m5_c2	LEFT	2.3119999999999976	120	10
3011f	66.9685	10	CET	c3_m5	RIGHT	2.247399999999999	120	25
3011f	83.2685	10	CET	m0_c2	RIGHT	3.5874000000000024	0	10
3011f	99.5602	10	CET	c5_m0	LEFT	2.2557000000000045	0	50
3011f	114.6019	10	dummy	dr0	RIGHT	2.0379999999999967	0	0
3011f	130.6514	10	CET	m4_c5	RIGHT	2.9484999999999957	100	50
3011f	147.4436	10	CET	c3_m2	LEFT	3.6761999999999944	50	25
3011f	162.9848	10	CET	m1_c3	RIGHT	1.334399999999988	10	25
3011f	178.027	10	dummy	dl1	LEFT	1.6288000000000125	0	0
3011f	193.0687	10	CET	c0_m0	RIGHT	3.1311000000000035	0	0
3011f	208.3604	10	CET	c4_m1	LEFT	1.9514000000000067	10	40
3011f	224.9098	10	CET	m4_c3	LEFT	2.122000000000014	100	25
3011f	240.9599	10	dummy	dr1	RIGHT	1.8318999999999903	0	0
3011f	256.7514	10	CET	c5_m5	RIGHT	2.0803999999999974	120	50
3011f	273.0432	10	CET	m1_c0	LEFT	2.4525999999999613	10	0
3011f	290.0855	10	dummy	dr3	RIGHT	2.026299999999992	0	0
3011f	306.6272	10	CET	m3_c3	RIGHT	2.5885000000000105	80	25
3011f	322.9273	10	CET	m3_c5	RIGHT	2.2083000000000084	80	50
3011f	338.2189	10	CET	m2_c1	LEFT	1.8367999999999824	50	2
3011f	354.76	10	CET	c1_m0	LEFT	2.0317000000000007	0	2
3011f	371.8018	10	dummy	dr2	RIGHT	1.693899999999985	0	0
3011f	387.844	10	CET	m2_c2	LEFT	2.907700000000034	50	10
3011f	403.3857	10	CET	m4_c0	LEFT	1.7660000000000196	100	0
3011f	418.9274	10	CET	c0_m5	RIGHT	1.6643000000000256	120	0
3011f	435.2274	10	dummy	dl3	LEFT	1.988300000000038	0	0
3011f	452.0191	10	CET	m4_c1	LEFT	1.8366000000000327	100	2
3011f	467.3108	10	CET	c4_m4	RIGHT	3.52090000000004	100	40
3011f	483.3519	10	dummy	dl2	LEFT	1.3038000000000238	0	0
3011f	498.3937	10	CET	c0_m2	RIGHT	1.79789999999997	50	0
3011f	514.9442	10	CET	c4_m3	LEFT	2.4873999999999796	80	40
3011f	530.7359	10	CET	m5_c4	RIGHT	2.8156999999999925	120	40
3011f	546.5276	10	CET	c4_m0	LEFT	2.104000000000042	0	40
3011f	561.5776	10	dummy	dl4	LEFT	1.4540000000000646	0	0
3011f	578.3687	10	CET	c2_m4	RIGHT	2.126899999999978	100	10
3011f	593.4277	10	CET	m5_c1	LEFT	1.523900000000026	120	2
3011f	609.961	10	CET	c5_m1	LEFT	1.4546000000000276	10	50
3011f	625.7527	10	dummy	dr4	RIGHT	2.0229000000000497	0	0
3011f	640.7944	10	CET	m0_c3	RIGHT	1.9572000000000571	0	25
3011f	657.6028	10	CET	c0_m3	RIGHT	2.6926999999999452	80	0
3011f	674.3861	10	dummy	dl5	LEFT	2.4693999999999505	0	0
3011f	689.9278	10	CET	m3_c2	LEFT	4.303699999999935	80	10
3011f	705.2279	10	CET	m2_c5	RIGHT	2.1236000000000104	50	50
3011f	721.519	10	dummy	dr5	RIGHT	1.6725000000000136	0	0
3011f	737.0607	10	CET	c1_m3	RIGHT	2.106800000000021	80	2
3011f	753.8529	10	CET	m1_c2	RIGHT	2.074600000000032	10	10
3011g	5.7934	10	CET	c4_m2	LEFT	1.8624999999999998	50	40
3011g	20.8356	10	CET	c1_m1	LEFT	1.9643000000000015	10	2
3011g	36.1273	10	dummy	dl0	LEFT	1.4886000000000053	0	0
3011g	51.169	10	CET	m5_c2	LEFT	1.5109000000000066	120	10
3011g	66.9606	10	CET	c3_m5	LEFT	1.959299999999999	120	25
3011g	83.2607	10	CET	m0_c2	RIGHT	1.3152000000000044	0	10
3011g	99.5608	10	CET	c5_m0	LEFT	1.319100000000006	0	50
3011g	114.6019	10	dummy	dr0	RIGHT	0.8539999999999992	0	0
3011g	130.6441	10	CET	m4_c5	RIGHT	1.7316999999999894	100	50
3011g	147.4358	10	CET	c3_m2	LEFT	2.1159999999999854	50	25
3011g	162.9859	10	CET	m1_c3	RIGHT	1.3099000000000274	10	25
3011g	178.027	10	dummy	dl1	LEFT	1.524799999999999	0	0
3011g	193.0693	10	CET	c0_m0	LEFT	1.522500000000008	0	0
3011g	208.3603	10	CET	c4_m1	LEFT	1.3515000000000157	10	40
3011g	224.9026	10	CET	m4_c3	LEFT	1.3531999999999869	100	25
3011g	240.9443	10	dummy	dr1	RIGHT	0.8315000000000055	0	0
3011g	256.7354	10	CET	c5_m5	RIGHT	2.2963999999999487	120	50
3011g	273.036	10	CET	m1_c0	RIGHT	1.5557999999999765	10	0
3011g	290.0771	10	dummy	dr3	RIGHT	0.6747000000000298	0	0
3011g	306.6194	10	CET	m3_c3	RIGHT	2.436399999999992	80	25
3011g	322.9111	10	CET	m3_c5	LEFT	1.6406000000000063	80	50
3011g	338.2028	10	CET	m2_c1	LEFT	1.6928999999999519	50	2
3011g	354.7445	10	CET	c1_m0	LEFT	1.1111999999999966	0	2
3011g	371.7856	10	dummy	dr2	RIGHT	0.886099999999999	0	0
3011g	387.8279	10	CET	m2_c2	LEFT	1.7638000000000034	50	10
3011g	403.3696	10	CET	m4_c0	LEFT	1.806100000000015	100	0
3011g	418.9113	10	CET	c0_m5	RIGHT	1.3844000000000278	120	0
3011g	435.2029	10	dummy	dl3	LEFT	1.5328000000000088	0	0
3011g	451.9947	10	CET	m4_c1	RIGHT	1.9009999999999536	100	2
3011g	467.2864	10	CET	c4_m4	LEFT	1.505299999999977	100	40
3011g	483.3275	10	dummy	dl2	LEFT	1.3041000000000054	0	0
3011g	498.3697	10	CET	c0_m2	RIGHT	1.2058999999999855	50	0
3011g	514.9114	10	CET	c4_m3	LEFT	1.6642000000000507	80	40
3011g	530.7031	10	CET	m5_c4	LEFT	1.3285000000000764	120	40
3011g	546.4948	10	CET	c4_m0	LEFT	1.4967999999998938	0	40
3011g	561.5365	10	dummy	dl4	LEFT	1.3190999999999349	0	0
3011g	578.3282	10	CET	c2_m4	RIGHT	3.2233999999999696	100	10
3011g	593.3699	10	CET	m5_c1	LEFT	2.4856999999999516	120	2
3011g	609.9116	10	CET	c5_m1	LEFT	1.183999999999969	10	50
3011g	625.7033	10	dummy	dr4	RIGHT	0.7123000000000275	0	0
3011g	640.745	10	CET	m0_c3	RIGHT	1.6625000000000227	0	25
3011g	657.5367	10	CET	c0_m3	RIGHT	1.3908999999999878	80	0
3011g	674.3445	10	dummy	dl5	LEFT	1.2469999999999573	0	0
3011g	689.8861	10	CET	m3_c2	RIGHT	2.5213999999999714	80	10
3011g	705.1784	10	CET	m2_c5	RIGHT	1.5330999999999904	50	50
3011g	721.4701	10	dummy	dr5	RIGHT	0.6413000000000011	0	0
3011g	737.0112	10	CET	c1_m3	RIGHT	1.8761999999999261	80	2
3011g	753.8202	10	CET	m1_c2	RIGHT	1.1873000000000502	10	10
3011h	5.793	10	CET	c4_m2	LEFT	2.6469999999999994	50	40
3011h	20.8352	10	CET	c1_m1	LEFT	4.5488	10	2
3011h	36.1263	10	dummy	dl0	LEFT	2.9136000000000024	0	0
3011h	51.168	10	CET	m5_c2	LEFT	2.9513000000000034	120	10
3011h	66.9603	10	CET	c3_m5	LEFT	5.183599999999998	120	25
3011h	83.252	10	CET	m0_c2	RIGHT	4.98790000000001	0	10
3011h	99.5437	10	CET	c5_m0	LEFT	2.400199999999998	0	50
3011h	114.5854	10	dummy	dr0	RIGHT	1.8784999999999883	0	0
3011h	130.6265	10	CET	m4_c5	RIGHT	5.397400000000005	100	50
3011h	147.4188	10	CET	c3_m2	LEFT	3.997099999999989	50	25
3011h	162.9605	10	CET	m1_c3	RIGHT	2.4154000000000053	10	25
3011h	178.0022	10	dummy	dl1	LEFT	2.3977000000000146	0	0
3011h	193.0438	10	CET	c0_m0	LEFT	4.292100000000005	0	0
3011h	208.3355	10	CET	c4_m1	LEFT	3.1043999999999983	10	40
3011h	224.8772	10	CET	m4_c3	LEFT	3.698599999999999	100	25
3011h	240.9189	10	dummy	dr1	RIGHT	1.880899999999997	0	0
3011h	256.7101	10	CET	c5_m5	RIGHT	3.0095000000000027	120	50
3011h	273.0017	10	CET	m1_c0	LEFT	4.518099999999947	10	0
3011h	290.044	10	dummy	dr3	RIGHT	1.8758000000000266	0	0
3011h	306.5852	10	CET	m3_c3	LEFT	4.254600000000039	80	25
3011h	322.8774	10	CET	m3_c5	LEFT	6.2823999999999955	80	50
3011h	338.1691	10	CET	m2_c1	LEFT	2.0066999999999666	50	2
3011h	354.7102	10	CET	c1_m0	LEFT	1.9055999999999926	0	2
3011h	371.7519	10	dummy	dr2	RIGHT	1.8479000000000383	0	0
3011h	387.7942	10	CET	m2_c2	RIGHT	2.6854999999999905	50	10
3011h	403.3352	10	CET	m4_c0	LEFT	1.9845000000000255	100	0
3011h	418.8775	10	CET	c0_m5	RIGHT	2.36220000000003	120	0
3011h	435.1687	10	dummy	dl3	LEFT	1.6870000000000118	0	0
3011h	451.9603	10	CET	m4_c1	LEFT	2.159400000000005	100	2
3011h	467.2526	10	CET	c4_m4	LEFT	4.587100000000021	100	40
3011h	483.2943	10	dummy	dl2	LEFT	2.481399999999951	0	0
3011h	498.3354	10	CET	c0_m2	RIGHT	4.144299999999987	50	0
3011h	514.8777	10	CET	c4_m3	LEFT	5.8419999999999845	80	40
3011h	530.6688	10	CET	m5_c4	LEFT	3.3467999999999165	120	40
3011h	546.4611	10	CET	c4_m0	LEFT	3.7386000000000195	0	40
3011h	561.5021	10	dummy	dl4	LEFT	2.5775999999999613	0	0
3011h	578.2939	10	CET	c2_m4	RIGHT	2.9057000000000244	100	10
3011h	593.3362	10	CET	m5_c1	LEFT	2.079400000000078	120	2
3011h	609.8772	10	CET	c5_m1	LEFT	2.1784000000000106	10	50
3011h	625.669	10	dummy	dr4	RIGHT	2.5066000000000486	0	0
3011h	640.7196	10	CET	m0_c3	RIGHT	2.655999999999949	0	25
3011h	657.5024	10	CET	c0_m3	RIGHT	2.769200000000069	80	0
3011h	674.2946	10	dummy	dl5	LEFT	2.241000000000099	0	0
3011h	689.8446	10	CET	m3_c2	LEFT	4.8110000000000355	80	10
3011h	705.128	10	CET	m2_c5	RIGHT	3.927599999999984	50	50
3011h	721.4197	10	dummy	dr5	RIGHT	2.65179999999998	0	0
3011h	736.9614	10	CET	c1_m3	RIGHT	2.6141999999999825	80	2
3011h	753.753	10	CET	m1_c2	RIGHT	3.1984999999999673	10	10
3011i	5.7902	10	CET	c4_m2	LEFT	2.9538	50	40
3011i	20.8325	10	CET	c1_m1	RIGHT	2.6715000000000018	10	2
3011i	36.1236	10	dummy	dl0	LEFT	2.2363	0	0
3011i	51.1652	10	CET	m5_c2	LEFT	2.2987000000000037	120	10
3011i	66.9575	10	CET	c3_m5	LEFT	4.482399999999998	120	25
3011i	83.2492	10	CET	m0_c2	RIGHT	2.270700000000005	0	10
3011i	99.5409	10	CET	c5_m0	LEFT	1.8190000000000026	0	50
3011i	114.5993	10	dummy	dr0	RIGHT	4.256600000000006	0	0
3011i	130.6321	10	CET	m4_c5	RIGHT	1.767799999999994	100	50
3011i	147.4243	10	CET	c3_m2	LEFT	1.9916000000000054	50	25
3011i	162.966	10	CET	m1_c3	RIGHT	1.913899999999984	10	25
3011i	178.0161	10	dummy	dl1	LEFT	1.7437999999999931	0	0
3011i	193.0577	10	CET	c0_m0	LEFT	6.038099999999986	0	0
3011i	208.3494	10	CET	c4_m1	LEFT	2.5704000000000065	10	40
3011i	224.8911	10	CET	m4_c3	LEFT	4.004700000000014	100	25
3011i	240.9322	10	dummy	dr1	RIGHT	1.8036000000000172	0	0
3011i	256.7245	10	CET	c5_m5	LEFT	6.491300000000024	120	50
3011i	273.0245	10	CET	m1_c0	LEFT	2.2712999999999965	10	0
3011i	290.0657	10	dummy	dr3	RIGHT	2.2141000000000304	0	0
3011i	306.6079	10	CET	m3_c3	RIGHT	3.3519000000000005	80	25
3011i	322.8996	10	CET	m3_c5	RIGHT	2.7001999999999953	80	50
3011i	338.1913	10	CET	m2_c1	LEFT	1.6884999999999764	50	2
3011i	354.733	10	CET	c1_m0	LEFT	2.4268000000000143	0	2
3011i	371.7747	10	dummy	dr2	RIGHT	2.0249999999999773	0	0
3011i	387.8241	10	CET	m2_c2	LEFT	2.975599999999986	50	10
3011i	403.3664	10	CET	m4_c0	LEFT	1.6093000000000188	100	0
3011i	418.9081	10	CET	c0_m5	RIGHT	1.8915999999999826	120	0
3011i	435.1998	10	dummy	dl3	LEFT	2.0399000000000456	0	0
3011i	451.9915	10	CET	m4_c1	LEFT	1.6642000000000507	100	2
3011i	467.2831	10	CET	c4_m4	LEFT	2.076599999999985	100	40
3011i	483.3242	10	dummy	dl2	LEFT	2.075499999999977	0	0
3011i	498.3661	10	CET	c0_m2	RIGHT	2.4735999999999763	50	0
3011i	514.9333	10	CET	c4_m3	LEFT	2.322400000000016	80	40
3011i	530.7249	10	CET	m5_c4	RIGHT	2.1307999999999083	120	40
3011i	546.5161	10	CET	c4_m0	LEFT	1.4834999999999354	0	40
3011i	561.5577	10	dummy	dl4	LEFT	1.9779000000000906	0	0
3011i	578.3494	10	CET	c2_m4	RIGHT	2.7062000000000808	100	10
3011i	593.3917	10	CET	m5_c1	LEFT	1.679899999999975	120	2
3011i	609.9334	10	CET	c5_m1	LEFT	1.9221999999999753	10	50
3011i	625.7245	10	dummy	dr4	RIGHT	1.827099999999973	0	0
3011i	640.7668	10	CET	m0_c3	RIGHT	1.904800000000023	0	25
3011i	657.5585	10	CET	c0_m3	RIGHT	1.8731000000000222	80	0
3011i	674.3502	10	dummy	dl5	LEFT	2.3214000000000397	0	0
3011i	689.9001	10	CET	m3_c2	LEFT	2.71550000000002	80	10
3011i	705.1919	10	CET	m2_c5	RIGHT	1.5436999999999443	50	50
3011i	721.483	10	dummy	dr5	RIGHT	1.5885000000000673	0	0
3011i	737.0253	10	CET	c1_m3	RIGHT	1.9102000000000317	80	2
3011i	753.8253	10	CET	m1_c2	RIGHT	2.446199999999976	10	10
0212b	5.7918	10	CET	c4_m2	RIGHT	1.5682	50	40
0212b	20.8334	10	CET	c1_m1	RIGHT	1.4864999999999995	10	2
0212b	36.1257	10	dummy	dl0	LEFT	2.0182	0	0
0212b	51.1668	10	CET	m5_c2	LEFT	1.9131	120	10
0212b	66.9674	10	CET	c3_m5	RIGHT	1.4724999999999966	120	25
0212b	83.2502	10	CET	m0_c2	RIGHT	3.0456999999999965	0	10
0212b	99.5425	10	CET	c5_m0	LEFT	1.7933999999999912	0	50
0212b	114.5836	10	dummy	dr0	RIGHT	1.6722999999999928	0	0
0212b	130.6259	10	CET	m4_c5	LEFT	1.9339999999999975	100	50
0212b	147.4176	10	CET	c3_m2	RIGHT	1.5023000000000195	50	25
0212b	162.9592	10	CET	m1_c3	LEFT	2.000699999999995	10	25
0212b	178.0009	10	dummy	dl1	LEFT	2.174900000000008	0	0
0212b	193.051	10	CET	c0_m0	RIGHT	3.6843000000000075	0	0
0212b	208.3343	10	CET	c4_m1	RIGHT	1.4014999999999986	10	40
0212b	224.876	10	CET	m4_c3	LEFT	1.3797999999999888	100	25
0212b	240.9177	10	dummy	dr1	RIGHT	1.978100000000012	0	0
0212b	256.7088	10	CET	c5_m5	RIGHT	1.5470000000000255	120	50
0212b	273.0094	10	CET	m1_c0	LEFT	1.6703999999999724	10	0
0212b	290.0422	10	dummy	dr3	RIGHT	2.1176000000000386	0	0
0212b	306.5838	10	CET	m3_c3	LEFT	1.5360000000000014	80	25
0212b	322.8761	10	CET	m3_c5	LEFT	1.243600000000015	80	50
0212b	338.1678	10	CET	m2_c1	LEFT	1.3120000000000118	50	2
0212b	354.7095	10	CET	c1_m0	RIGHT	1.546199999999999	0	2
0212b	371.7596	10	dummy	dr2	RIGHT	2.080100000000016	0	0
0212b	387.7924	10	CET	m2_c2	LEFT	1.783299999999997	50	10
0212b	403.3346	10	CET	m4_c0	LEFT	1.681099999999958	100	0
0212b	418.8763	10	CET	c0_m5	RIGHT	1.7393999999999892	120	0
0212b	435.1674	10	dummy	dl3	LEFT	1.9923000000000002	0	0
0212b	451.9591	10	CET	m4_c1	LEFT	1.5206000000000017	100	2
0212b	467.2514	10	CET	c4_m4	RIGHT	1.5883000000000038	100	40
0212b	483.2931	10	dummy	dl2	LEFT	1.7866000000000213	0	0
0212b	498.3342	10	CET	c0_m2	RIGHT	1.4014999999999986	50	0
0212b	514.8764	10	CET	c4_m3	RIGHT	1.4033000000000584	80	40
0212b	530.6765	10	CET	m5_c4	LEFT	1.3231999999999289	120	40
0212b	546.4682	10	CET	c4_m0	LEFT	1.627399999999966	0	40
0212b	561.5098	10	dummy	dl4	LEFT	1.7857999999999947	0	0
0212b	578.3099	10	CET	c2_m4	RIGHT	1.921699999999987	100	10
0212b	593.3432	10	CET	m5_c1	LEFT	1.0323999999999387	120	2
0212b	609.8848	10	CET	c5_m1	RIGHT	1.5067999999999984	10	50
0212b	625.6761	10	dummy	dr4	RIGHT	1.7554999999999836	0	0
0212b	640.7183	10	CET	m0_c3	RIGHT	1.953300000000013	0	25
0212b	657.51	10	CET	c0_m3	RIGHT	1.6656000000000404	80	0
0212b	674.3011	10	dummy	dl5	LEFT	1.6744999999999663	0	0
0212b	689.8428	10	CET	m3_c2	LEFT	1.612799999999993	80	10
0212b	705.1434	10	CET	m2_c5	LEFT	1.4481999999999289	50	50
0212b	721.4434	10	dummy	dr5	RIGHT	1.4682000000000244	0	0
0212b	736.9851	10	CET	c1_m3	RIGHT	1.326400000000035	80	2
0212b	753.7768	10	CET	m1_c2	LEFT	1.2146999999999935	10	10
0212c	5.7926	10	CET	c4_m2	RIGHT	2.3271999999999995	50	40
0212c	20.8427	10	CET	c1_m1	RIGHT	1.4771999999999998	10	2
0212c	36.1343	10	dummy	dl0	LEFT	2.5615999999999985	0	0
0212c	51.1844	10	CET	m5_c2	LEFT	1.535500000000006	120	10
0212c	66.9844	10	CET	c3_m5	RIGHT	1.6955000000000098	120	25
0212c	83.2761	10	CET	m0_c2	RIGHT	2.8198000000000008	0	10
0212c	99.5678	10	CET	c5_m0	LEFT	2.352099999999993	0	50
0212c	114.6088	10	dummy	dr0	RIGHT	1.8470999999999975	0	0
0212c	130.6678	10	CET	m4_c5	LEFT	1.2521000000000129	100	50
0212c	147.4595	10	CET	c3_m2	RIGHT	1.2763999999999953	50	25
0212c	163.0012	10	CET	m1_c3	LEFT	1.2786999999999864	10	25
0212c	178.0429	10	dummy	dl1	LEFT	1.9569999999999936	0	0
0212c	193.0846	10	CET	c0_m0	LEFT	3.9713000000000136	0	0
0212c	208.3763	10	CET	c4_m1	RIGHT	2.039500000000004	10	40
0212c	224.918	10	CET	m4_c3	LEFT	0.9377999999999815	100	25
0212c	240.9597	10	dummy	dr1	RIGHT	1.5999999999999943	0	0
0212c	256.7514	10	CET	c5_m5	RIGHT	1.2484000000000037	120	50
0212c	273.0597	10	CET	m1_c0	LEFT	0.9160999999999717	10	0
0212c	290.1008	10	dummy	dr3	RIGHT	2.2590000000000146	0	0
0212c	306.6426	10	CET	m3_c3	LEFT	1.0772000000000048	80	25
0212c	322.9348	10	CET	m3_c5	LEFT	1.4010000000000105	80	50
0212c	338.2265	10	CET	m2_c1	LEFT	1.189300000000003	50	2
0212c	354.7682	10	CET	c1_m0	LEFT	1.9835000000000491	0	2
0212c	371.8099	10	dummy	dr2	RIGHT	2.2217999999999734	0	0
0212c	387.8511	10	CET	m2_c2	LEFT	1.2606000000000108	50	10
0212c	403.3933	10	CET	m4_c0	LEFT	1.4384000000000015	100	0
0212c	418.935	10	CET	c0_m5	RIGHT	2.056699999999978	120	0
0212c	435.2266	10	dummy	dl3	LEFT	2.445099999999968	0	0
0212c	452.0178	10	CET	m4_c1	LEFT	1.6538999999999646	100	2
0212c	467.31	10	CET	c4_m4	RIGHT	1.6252999999999815	100	40
0212c	483.3517	10	dummy	dl2	LEFT	2.584000000000003	0	0
0212c	498.3934	10	CET	c0_m2	RIGHT	1.318300000000022	50	0
0212c	514.9351	10	CET	c4_m3	RIGHT	2.1766000000000076	80	40
0212c	530.7268	10	CET	m5_c4	LEFT	1.064799999999991	120	40
0212c	546.5185	10	CET	c4_m0	LEFT	1.6170999999999367	0	40
0212c	561.5685	10	dummy	dl4	LEFT	2.143100000000004	0	0
0212c	578.3519	10	CET	c2_m4	RIGHT	2.039700000000039	100	10
0212c	593.3935	10	CET	m5_c1	LEFT	1.0780999999999494	120	2
0212c	609.9436	10	CET	c5_m1	RIGHT	1.6320000000000618	10	50
0212c	625.7353	10	dummy	dr4	RIGHT	1.4802999999999429	0	0
0212c	640.777	10	CET	m0_c3	RIGHT	1.8385999999999285	0	25
0212c	657.5681	10	CET	c0_m3	RIGHT	1.2635000000000218	80	0
0212c	674.3604	10	dummy	dl5	LEFT	2.0312000000000126	0	0
0212c	689.902	10	CET	m3_c2	LEFT	1.4495999999999185	80	10
0212c	705.1937	10	CET	m2_c5	LEFT	1.3817999999999984	50	50
0212c	721.4937	10	dummy	dr5	RIGHT	1.897799999999961	0	0
0212c	737.0355	10	CET	c1_m3	RIGHT	1.3799999999999955	80	2
0212c	753.8266	10	CET	m1_c2	LEFT	1.2449000000000296	10	10
0212d	5.7892	10	CET	c4_m2	LEFT	2.5066999999999995	50	40
0212d	20.84	10	CET	c1_m1	LEFT	3.4558999999999997	10	2
0212d	36.131	10	dummy	dl0	LEFT	1.6689000000000007	0	0
0212d	51.1728	10	CET	m5_c2	LEFT	2.3470999999999975	120	10
0212d	66.9734	10	CET	c3_m5	LEFT	2.9625000000000057	120	25
0212d	83.2568	10	CET	m0_c2	RIGHT	2.359099999999998	0	10
0212d	99.5568	10	CET	c5_m0	LEFT	2.0191000000000088	0	50
0212d	114.5984	10	dummy	dr0	RIGHT	1.6574999999999989	0	0
0212d	130.6396	10	CET	m4_c5	RIGHT	1.9923000000000002	100	50
0212d	147.4319	10	CET	c3_m2	LEFT	1.4399999999999977	50	25
0212d	162.9736	10	CET	m1_c3	RIGHT	3.682299999999998	10	25
0212d	178.0152	10	dummy	dl1	LEFT	1.5366999999999962	0	0
0212d	193.0569	10	CET	c0_m0	LEFT	3.9589	0	0
0212d	208.348	10	CET	c4_m1	LEFT	1.4437999999999818	10	40
0212d	224.8903	10	CET	m4_c3	LEFT	4.205500000000001	100	25
0212d	240.9315	10	dummy	dr1	RIGHT	3.0442999999999927	0	0
0212d	256.7237	10	CET	c5_m5	LEFT	2.6680999999999813	120	50
0212d	273.0237	10	CET	m1_c0	LEFT	2.1680999999999813	10	0
0212d	290.0649	10	dummy	dr3	RIGHT	2.030899999999974	0	0
0212d	306.6066	10	CET	m3_c3	RIGHT	4.969200000000001	80	25
0212d	322.8988	10	CET	m3_c5	RIGHT	2.0529999999999973	80	50
0212d	338.1988	10	CET	m2_c1	LEFT	2.15300000000002	50	2
0212d	354.7405	10	CET	c1_m0	LEFT	2.0113000000000056	0	2
0212d	371.7905	10	dummy	dr2	RIGHT	1.6411999999999694	0	0
0212d	387.8322	10	CET	m2_c2	RIGHT	4.943499999999972	50	10
0212d	403.3739	10	CET	m4_c0	LEFT	1.0978000000000065	100	0
0212d	418.915	10	CET	c0_m5	RIGHT	1.3007000000000062	120	0
0212d	435.2073	10	dummy	dl3	LEFT	1.5444000000000528	0	0
0212d	451.9984	10	CET	m4_c1	LEFT	1.7772999999999683	100	2
0212d	467.299	10	CET	c4_m4	LEFT	1.0767000000000166	100	40
0212d	483.3407	10	dummy	dl2	LEFT	1.690999999999974	0	0
0212d	498.3818	10	CET	c0_m2	RIGHT	1.8097999999999956	50	0
0212d	514.9241	10	CET	c4_m3	LEFT	1.1875	80	40
0212d	530.7158	10	CET	m5_c4	RIGHT	3.8759000000000015	120	40
0212d	546.5075	10	CET	c4_m0	LEFT	1.868099999999913	0	40
0212d	561.5492	10	dummy	dl4	LEFT	1.7463999999999942	0	0
0212d	578.3403	10	CET	c2_m4	LEFT	5.611300000000028	100	10
0212d	593.3826	10	CET	m5_c1	LEFT	1.9049999999999727	120	2
0212d	609.9242	10	CET	c5_m1	LEFT	1.8833999999999378	10	50
0212d	625.7243	10	dummy	dr4	RIGHT	2.003300000000081	0	0
0212d	640.766	10	CET	m0_c3	RIGHT	1.1055999999999813	0	25
0212d	657.5577	10	CET	c0_m3	RIGHT	1.4499000000000706	80	0
0212d	674.3493	10	dummy	dl5	LEFT	1.4423000000000457	0	0
0212d	689.891	10	CET	m3_c2	RIGHT	2.420500000000061	80	10
0212d	705.1827	10	CET	m2_c5	RIGHT	1.728900000000067	50	50
0212d	721.4744	10	dummy	dr5	RIGHT	1.7332000000000107	0	0
0212d	737.0244	10	CET	c1_m3	RIGHT	1.8070999999999913	80	2
0212d	753.8155	10	CET	m1_c2	RIGHT	0.9759999999999991	10	10
0212e	5.7881	10	CET	c4_m2	LEFT	3.1077999999999992	50	40
0212e	20.8293	10	CET	c1_m1	RIGHT	4.4266000000000005	10	2
0212e	36.1214	10	dummy	dl0	LEFT	6.814499999999995	0	0
0212e	51.171	10	CET	m5_c2	LEFT	5.1248000000000005	120	10
0212e	66.9627	10	CET	c3_m5	RIGHT	6.477199999999996	120	25
0212e	83.2549	10	CET	m0_c2	RIGHT	2.4809999999999945	0	10
0212e	99.5633	10	CET	c5_m0	LEFT	3.212599999999995	0	50
0212e	114.6044	10	dummy	dr0	RIGHT	2.355400000000003	0	0
0212e	130.6461	10	CET	m4_c5	RIGHT	3.249800000000022	100	50
0212e	147.4384	10	CET	c3_m2	LEFT	5.177400000000006	50	25
0212e	162.9795	10	CET	m1_c3	RIGHT	3.6363000000000056	10	25
0212e	178.0217	10	dummy	dl1	LEFT	3.714100000000002	0	0
0212e	193.0634	10	CET	c0_m0	NONE	10.0	0	0
0212e	208.3635	10	CET	c4_m1	LEFT	2.7323000000000093	10	40
0212e	224.8968	10	CET	m4_c3	LEFT	3.454999999999984	100	25
0212e	240.9468	10	dummy	dr1	RIGHT	3.125	0	0
0212e	256.7296	10	CET	c5_m5	LEFT	4.742199999999968	120	50
0212e	273.0218	10	CET	m1_c0	LEFT	3.754000000000019	10	0
0212e	290.0636	10	dummy	dr3	RIGHT	2.6721999999999753	0	0
0212e	306.6053	10	CET	m3_c3	LEFT	5.386500000000012	80	25
0212e	322.9136	10	CET	m3_c5	RIGHT	3.2221000000000117	80	50
0212e	338.2137	10	CET	m2_c1	LEFT	2.641999999999996	50	2
0212e	354.7554	10	CET	c1_m0	LEFT	4.036299999999983	0	2
0212e	371.797	10	dummy	dr2	RIGHT	2.834699999999998	0	0
0212e	387.8382	10	CET	m2_c2	LEFT	4.99350000000004	50	10
0212e	403.3888	10	CET	m4_c0	LEFT	3.6428999999999974	100	0
0212e	418.9388	10	CET	c0_m5	RIGHT	2.3168999999999755	120	0
0212e	435.2305	10	dummy	dl3	LEFT	2.2011999999999716	0	0
0212e	452.0305	10	CET	m4_c1	LEFT	2.9611999999999625	100	2
0212e	467.3139	10	CET	c4_m4	LEFT	3.317800000000034	100	40
0212e	483.355	10	dummy	dl2	LEFT	2.7565999999999917	0	0
0212e	498.3967	10	CET	c0_m2	RIGHT	2.498899999999992	50	0
0212e	514.9473	10	CET	c4_m3	LEFT	2.3082999999999174	80	40
0212e	530.7306	10	CET	m5_c4	RIGHT	6.965000000000032	120	40
0212e	546.5223	10	CET	c4_m0	LEFT	2.58929999999998	0	40
0212e	561.5634	10	dummy	dl4	LEFT	2.5481999999999516	0	0
0212e	578.3557	10	CET	c2_m4	RIGHT	3.0359000000000833	100	10
0212e	593.3968	10	CET	m5_c1	LEFT	2.13880000000006	120	2
0212e	609.9391	10	CET	c5_m1	LEFT	2.8125	10	50
0212e	625.7308	10	dummy	dr4	RIGHT	2.300700000000006	0	0
0212e	640.7725	10	CET	m0_c3	RIGHT	2.8589999999999236	0	25
0212e	657.5642	10	CET	c0_m3	RIGHT	2.411299999999983	80	0
0212e	674.3636	10	dummy	dl5	LEFT	2.2918999999999414	0	0
0212e	689.9142	10	CET	m3_c2	LEFT	2.9972999999999956	80	10
0212e	705.2059	10	CET	m2_c5	RIGHT	1.5455999999999221	50	50
0212e	721.4976	10	dummy	dr5	RIGHT	2.5498999999999796	0	0
0212e	737.0393	10	CET	c1_m3	RIGHT	2.088200000000029	80	2
0212e	753.831	10	CET	m1_c2	RIGHT	2.9365000000000236	10	10
0212f	5.7949	10	CET	c4_m2	LEFT	2.1010999999999997	50	40
0212f	20.8366	10	CET	c1_m1	RIGHT	1.8034	10	2
0212f	36.136	10	dummy	dl0	LEFT	2.4239999999999995	0	0
0212f	51.1777	10	CET	m5_c2	LEFT	4.0623000000000005	120	10
0212f	66.9695	10	CET	c3_m5	LEFT	3.590500000000006	120	25
0212f	83.2617	10	CET	m0_c2	RIGHT	2.898299999999992	0	10
0212f	99.5617	10	CET	c5_m0	LEFT	1.9183000000000021	0	50
0212f	114.6029	10	dummy	dr0	RIGHT	2.2930999999999955	0	0
0212f	130.6446	10	CET	m4_c5	RIGHT	3.5153999999999996	100	50
0212f	147.4451	10	CET	c3_m2	LEFT	2.5947999999999922	50	25
0212f	162.9868	10	CET	m1_c3	RIGHT	1.789100000000019	10	25
0212f	178.0278	10	dummy	dl1	LEFT	2.332099999999997	0	0
0212f	193.0702	10	CET	c0_m0	LEFT	3.3216999999999928	0	0
0212f	208.3619	10	CET	c4_m1	LEFT	2.054000000000002	10	40
0212f	224.903	10	CET	m4_c3	RIGHT	3.712900000000019	100	25
0212f	240.9447	10	dummy	dr1	RIGHT	2.1911999999999807	0	0
0212f	256.737	10	CET	c5_m5	RIGHT	3.334799999999973	120	50
0212f	273.037	10	CET	m1_c0	LEFT	3.7149	10	0
0212f	290.0696	10	dummy	dr3	RIGHT	2.1462999999999965	0	0
0212f	306.6114	10	CET	m3_c3	RIGHT	2.9805000000000064	80	25
0212f	322.9037	10	CET	m3_c5	RIGHT	2.128099999999961	80	50
0212f	338.2038	10	CET	m2_c1	LEFT	3.947999999999979	50	2
0212f	354.7455	10	CET	c1_m0	LEFT	2.4302999999999884	0	2
0212f	371.7866	10	dummy	dr2	RIGHT	1.4692000000000007	0	0
0212f	387.8288	10	CET	m2_c2	RIGHT	3.083000000000027	50	10
0212f	403.3789	10	CET	m4_c0	LEFT	2.036900000000003	100	0
0212f	418.92	10	CET	c0_m5	RIGHT	2.071799999999996	120	0
0212f	435.2122	10	dummy	dl3	LEFT	1.8036000000000172	0	0
0212f	452.0123	10	CET	m4_c1	LEFT	3.899500000000046	100	2
0212f	467.304	10	CET	c4_m4	LEFT	2.727700000000027	100	40
0212f	483.3457	10	dummy	dl2	LEFT	2.085999999999956	0	0
0212f	498.3868	10	CET	c0_m2	RIGHT	2.988900000000001	50	0
0212f	514.9374	10	CET	c4_m3	LEFT	2.1743000000000166	80	40
0212f	530.7291	10	CET	m5_c4	RIGHT	2.0226000000000113	120	40
0212f	546.5208	10	CET	c4_m0	LEFT	2.054899999999975	0	40
0212f	561.5617	10	dummy	dl4	LEFT	1.8140000000000782	0	0
0212f	578.3541	10	CET	c2_m4	LEFT	4.757600000000025	100	10
0212f	593.3958	10	CET	m5_c1	LEFT	3.5959000000000287	120	2
0212f	609.9375	10	CET	c5_m1	LEFT	1.9582000000000335	10	50
0212f	625.7286	10	dummy	dr4	RIGHT	2.247099999999932	0	0
0212f	640.7709	10	CET	m0_c3	RIGHT	1.9808000000000447	0	25
0212f	657.5793	10	CET	c0_m3	RIGHT	2.9162999999999784	80	0
0212f	674.3709	10	dummy	dl5	LEFT	2.3646999999999707	0	0
0212f	689.9127	10	CET	m3_c2	RIGHT	3.9588999999999714	80	10
0212f	705.2043	10	CET	m2_c5	RIGHT	2.387299999999982	50	50
0212f	721.4955	10	dummy	dr5	RIGHT	2.296100000000024	0	0
0212f	737.0377	10	CET	c1_m3	RIGHT	3.0738999999999805	80	2
0212f	753.8294	10	CET	m1_c2	RIGHT	2.3781999999999925	10	10
0212g	5.7913	10	CET	c4_m2	LEFT	2.2646999999999995	50	40
0212g	20.8408	10	CET	c1_m1	LEFT	3.3751999999999995	10	2
0212g	36.1325	10	dummy	dl0	LEFT	1.6034999999999968	0	0
0212g	51.1831	10	CET	m5_c2	RIGHT	4.856999999999999	120	10
0212g	66.9748	10	CET	c3_m5	LEFT	1.6651999999999987	120	25
0212g	83.2665	10	CET	m0_c2	RIGHT	2.7494000000000085	0	10
0212g	99.5581	10	CET	c5_m0	LEFT	1.8418000000000063	0	50
0212g	114.6082	10	dummy	dr0	RIGHT	1.8877000000000095	0	0
0212g	130.6582	10	CET	m4_c5	RIGHT	1.3015000000000043	100	50
0212g	147.4416	10	CET	c3_m2	LEFT	1.3743000000000052	50	25
0212g	162.9833	10	CET	m1_c3	RIGHT	1.392499999999984	10	25
0212g	178.0249	10	dummy	dl1	LEFT	2.335000000000008	0	0
0212g	193.066	10	CET	c0_m0	LEFT	3.349899999999991	0	0
0212g	208.3667	10	CET	c4_m1	LEFT	1.7691999999999837	10	40
0212g	224.8995	10	CET	m4_c3	RIGHT	1.4764000000000124	100	25
0212g	240.9412	10	dummy	dr1	RIGHT	1.5546999999999969	0	0
0212g	256.7334	10	CET	c5_m5	LEFT	2.002399999999966	120	50
0212g	273.0334	10	CET	m1_c0	LEFT	3.3424000000000547	10	0
0212g	290.0746	10	dummy	dr3	RIGHT	1.2212000000000103	0	0
0212g	306.6168	10	CET	m3_c3	RIGHT	1.5430000000000064	80	25
0212g	322.9085	10	CET	m3_c5	RIGHT	1.1872999999999934	80	50
0212g	338.2085	10	CET	m2_c1	RIGHT	3.6073000000000093	50	2
0212g	354.7502	10	CET	c1_m0	LEFT	2.3455999999999904	0	2
0212g	371.7914	10	dummy	dr2	RIGHT	1.5043999999999755	0	0
0212g	387.833	10	CET	m2_c2	RIGHT	2.7667999999999893	50	10
0212g	403.3831	10	CET	m4_c0	LEFT	1.3286999999999694	100	0
0212g	418.9253	10	CET	c0_m5	RIGHT	1.6505000000000223	120	0
0212g	435.217	10	dummy	dl3	LEFT	1.0547000000000253	0	0
0212g	452.0087	10	CET	m4_c1	LEFT	4.063000000000045	100	2
0212g	467.3004	10	CET	c4_m4	LEFT	1.5552999999999884	100	40
0212g	483.3421	10	dummy	dl2	LEFT	1.073599999999999	0	0
0212g	498.3916	10	CET	c0_m2	RIGHT	1.4641000000000304	50	0
0212g	514.9338	10	CET	c4_m3	LEFT	1.0176000000000158	80	40
0212g	530.7255	10	CET	m5_c4	RIGHT	1.290200000000027	120	40
0212g	546.5172	10	CET	c4_m0	LEFT	1.4344999999999573	0	40
0212g	561.5589	10	dummy	dl4	LEFT	1.4968000000000075	0	0
0212g	578.35	10	CET	c2_m4	LEFT	2.921699999999987	100	10
0212g	593.3917	10	CET	m5_c1	LEFT	1.5838999999999714	120	2
0212g	609.934	10	CET	c5_m1	LEFT	1.6014000000000124	10	50
0212g	625.7251	10	dummy	dr4	RIGHT	1.5465000000000373	0	0
0212g	640.7751	10	CET	m0_c3	RIGHT	1.9365000000000236	0	25
0212g	657.5674	10	CET	c0_m3	RIGHT	1.8081999999999425	80	0
0212g	674.3585	10	dummy	dl5	LEFT	1.5530999999999722	0	0
0212g	689.9008	10	CET	m3_c2	RIGHT	2.4107999999999947	80	10
0212g	705.2008	10	CET	m2_c5	RIGHT	1.654800000000023	50	50
0212g	721.4918	10	dummy	dr5	RIGHT	1.779800000000023	0	0
0212g	737.0342	10	CET	c1_m3	RIGHT	4.317399999999907	80	2
0212g	753.8259	10	CET	m1_c2	RIGHT	1.7896999999999252	10	10
0212h	5.787	10	CET	c4_m2	LEFT	2.6929000000000007	50	40
0212h	20.837	10	CET	c1_m1	LEFT	4.602900000000002	10	2
0212h	36.1204	10	dummy	dl0	RIGHT	4.975500000000004	0	0
0212h	51.1704	10	CET	m5_c2	LEFT	5.701499999999996	120	10
0212h	66.9704	10	CET	c3_m5	LEFT	7.165500000000009	120	25
0212h	83.2621	10	CET	m0_c2	RIGHT	4.609799999999993	0	10
0212h	99.5538	10	CET	c5_m0	LEFT	2.9421000000000106	0	50
0212h	114.6038	10	dummy	dr0	RIGHT	3.028099999999995	0	0
0212h	130.6366	10	CET	m4_c5	RIGHT	4.0353000000000065	100	50
0212h	147.4284	10	CET	c3_m2	RIGHT	3.883499999999998	50	25
0212h	162.9706	10	CET	m1_c3	RIGHT	2.7652999999999963	10	25
0212h	178.02	10	dummy	dl1	LEFT	2.7557999999999936	0	0
0212h	193.0623	10	CET	c0_m0	LEFT	4.609499999999997	0	0
0212h	208.354	10	CET	c4_m1	LEFT	4.4617999999999824	10	40
0212h	224.8957	10	CET	m4_c3	LEFT	2.1601	100	25
0212h	240.9367	10	dummy	dr1	RIGHT	2.895099999999985	0	0
0212h	256.7368	10	CET	c5_m5	RIGHT	3.998999999999967	120	50
0212h	273.0291	10	CET	m1_c0	LEFT	2.386699999999962	10	0
0212h	290.0708	10	dummy	dr3	RIGHT	1.8809999999999718	0	0
0212h	306.6125	10	CET	m3_c3	RIGHT	3.699299999999994	80	25
0212h	322.9042	10	CET	m3_c5	RIGHT	2.687599999999975	80	50
0212h	338.1959	10	CET	m2_c1	LEFT	2.6598999999999933	50	2
0212h	354.7375	10	CET	c1_m0	LEFT	3.918200000000013	0	2
0212h	371.7959	10	dummy	dr2	RIGHT	2.595799999999997	0	0
0212h	387.8376	10	CET	m2_c2	LEFT	3.994100000000003	50	10
0212h	403.3793	10	CET	m4_c0	LEFT	2.492399999999975	100	0
0212h	418.921	10	CET	c0_m5	RIGHT	2.85469999999998	120	0
0212h	435.221	10	dummy	dl3	LEFT	2.5307000000000244	0	0
0212h	452.0043	10	CET	m4_c1	LEFT	3.707400000000007	100	2
0212h	467.3044	10	CET	c4_m4	LEFT	3.4873000000000047	100	40
0212h	483.3454	10	dummy	dl2	LEFT	2.366300000000024	0	0
0212h	498.3872	10	CET	c0_m2	RIGHT	2.4044999999999845	50	0
0212h	514.9295	10	CET	c4_m3	RIGHT	3.822200000000066	80	40
0212h	530.7212	10	CET	m5_c4	LEFT	2.0704000000000633	120	40
0212h	546.5128	10	CET	c4_m0	LEFT	2.238800000000083	0	40
0212h	561.5545	10	dummy	dl4	LEFT	2.4370999999999867	0	0
0212h	578.3462	10	CET	c2_m4	RIGHT	2.8614000000000033	100	10
0212h	593.3879	10	CET	m5_c1	LEFT	3.6837000000000444	120	2
0212h	609.9296	10	CET	c5_m1	LEFT	2.22199999999998	10	50
0212h	625.7207	10	dummy	dr4	RIGHT	1.8069000000000415	0	0
0212h	640.7713	10	CET	m0_c3	RIGHT	2.70029999999997	0	25
0212h	657.5547	10	CET	c0_m3	RIGHT	3.3968999999999596	80	0
0212h	674.3464	10	dummy	dl5	LEFT	3.0452000000000226	0	0
0212h	689.8875	10	CET	m3_c2	RIGHT	4.240000000000009	80	10
0212h	705.1798	10	CET	m2_c5	RIGHT	2.227800000000002	50	50
0212h	721.4715	10	dummy	dr5	RIGHT	2.519999999999982	0	0
0212h	737.0215	10	CET	c1_m3	RIGHT	4.026000000000067	80	2
0212h	753.8048	10	CET	m1_c2	RIGHT	2.466699999999946	10	10
0212i	5.7921	10	CET	c4_m2	LEFT	3.9679	50	40
0212i	20.8338	10	CET	c1_m1	RIGHT	5.150099999999998	10	2
0212i	36.1255	10	dummy	dl0	LEFT	2.514499999999998	0	0
0212i	51.1672	10	CET	m5_c2	LEFT	5.336799999999997	120	10
0212i	66.9589	10	CET	c3_m5	LEFT	4.161100000000005	120	25
0212i	83.25	10	CET	m0_c2	RIGHT	3.813900000000004	0	10
0212i	99.5423	10	CET	c5_m0	LEFT	3.881600000000006	0	50
0212i	114.584	10	dummy	dr0	RIGHT	2.1358999999999924	0	0
0212i	130.6251	10	CET	m4_c5	LEFT	4.53479999999999	100	50
0212i	147.4167	10	CET	c3_m2	LEFT	4.623199999999997	50	25
0212i	162.9591	10	CET	m1_c3	RIGHT	3.3607999999999834	10	25
0212i	178.0008	10	dummy	dl1	LEFT	1.5030999999999892	0	0
0212i	193.0424	10	CET	c0_m0	RIGHT	4.637500000000017	0	0
0212i	208.3341	10	CET	c4_m1	LEFT	2.585800000000006	10	40
0212i	224.8758	10	CET	m4_c3	LEFT	2.3881000000000085	100	25
0212i	240.9175	10	dummy	dr1	RIGHT	1.66640000000001	0	0
0212i	256.7087	10	CET	c5_m5	RIGHT	2.771199999999965	120	50
0212i	273.0003	10	CET	m1_c0	LEFT	3.823500000000024	10	0
0212i	290.042	10	dummy	dr3	RIGHT	2.0218000000000416	0	0
0212i	306.5837	10	CET	m3_c3	RIGHT	4.720100000000002	80	25
0212i	322.8843	10	CET	m3_c5	RIGHT	5.195499999999981	80	50
0212i	338.1677	10	CET	m2_c1	LEFT	2.472099999999955	50	2
0212i	354.7094	10	CET	c1_m0	LEFT	4.074399999999969	0	2
0212i	371.7511	10	dummy	dr2	RIGHT	1.3526999999999703	0	0
0212i	387.7922	10	CET	m2_c2	LEFT	3.4716000000000236	50	10
0212i	403.3344	10	CET	m4_c0	LEFT	4.305399999999963	100	0
0212i	418.8845	10	CET	c0_m5	RIGHT	4.259299999999996	120	0
0212i	435.1762	10	dummy	dl3	LEFT	1.239500000000021	0	0
0212i	451.9679	10	CET	m4_c1	LEFT	3.3917999999999893	100	2
0212i	467.2679	10	CET	c4_m4	LEFT	2.251899999999978	100	40
0212i	483.3096	10	dummy	dl2	LEFT	1.9701000000000022	0	0
0212i	498.3507	10	CET	c0_m2	RIGHT	2.2889999999999873	50	0
0212i	514.8929	10	CET	c4_m3	LEFT	4.242799999999988	80	40
0212i	530.6841	10	CET	m5_c4	LEFT	3.331700000000069	120	40
0212i	546.4763	10	CET	c4_m0	LEFT	2.0033999999999423	0	40
0212i	561.5264	10	dummy	dl4	LEFT	1.0892999999999802	0	0
0212i	578.3175	10	CET	c2_m4	RIGHT	1.9782000000000153	100	10
0212i	593.3597	10	CET	m5_c1	LEFT	1.9600000000000364	120	2
0212i	609.9009	10	CET	c5_m1	LEFT	2.4347000000000207	10	50
0212i	625.6926	10	dummy	dr4	RIGHT	1.3070000000000164	0	0
0212i	640.7348	10	CET	m0_c3	RIGHT	2.440800000000081	0	25
0212i	657.5259	10	CET	c0_m3	RIGHT	1.9934000000000651	80	0
0212i	674.3181	10	dummy	dl5	LEFT	1.2975000000000136	0	0
0212i	689.8677	10	CET	m3_c2	LEFT	2.7478999999999587	80	10
0212i	705.1766	10	CET	m2_c5	RIGHT	1.8629999999999427	50	50
0212i	721.4599	10	dummy	dr5	RIGHT	1.2357000000000653	0	0
0212i	737.0016	10	CET	c1_m3	RIGHT	2.2779999999999063	80	2
0212i	753.81	10	CET	m1_c2	RIGHT	2.205500000000029	10	10
0312a	5.7931	10	CET	c4_m2	RIGHT	0.8468	50	40
0312a	20.8348	10	CET	c1_m1	RIGHT	0.7651000000000003	10	2
0312a	36.1265	10	dummy	dl0	LEFT	1.8733999999999966	0	0
0312a	51.1676	10	CET	m5_c2	LEFT	2.1522999999999968	120	10
0312a	66.9599	10	CET	c3_m5	RIGHT	1.1839999999999975	120	25
0312a	83.2515	10	CET	m0_c2	RIGHT	3.6684000000000054	0	10
0312a	99.5427	10	CET	c5_m0	LEFT	2.392700000000005	0	50
0312a	114.5843	10	dummy	dr0	RIGHT	1.711500000000001	0	0
0312a	130.6261	10	CET	m4_c5	LEFT	1.8537000000000035	100	50
0312a	147.4183	10	CET	c3_m2	RIGHT	1.2215000000000202	50	25
0312a	162.96	10	CET	m1_c3	LEFT	1.4157999999999902	10	25
0312a	178.0017	10	dummy	dl1	LEFT	2.0940999999999974	0	0
0312a	193.0434	10	CET	c0_m0	RIGHT	3.91640000000001	0	0
0312a	208.3351	10	CET	c4_m1	RIGHT	1.0406999999999869	10	40
0312a	224.8767	10	CET	m4_c3	LEFT	1.0191000000000088	100	25
0312a	240.9179	10	dummy	dr1	RIGHT	1.5619000000000085	0	0
0312a	256.7095	10	CET	c5_m5	RIGHT	1.0903000000000134	120	50
0312a	273.0185	10	CET	m1_c0	LEFT	1.5972999999999615	10	0
0312a	290.0595	10	dummy	dr3	RIGHT	1.2362999999999715	0	0
0312a	306.6019	10	CET	m3_c3	LEFT	1.4377999999999815	80	25
0312a	322.8935	10	CET	m3_c5	LEFT	0.8661999999999921	80	50
0312a	338.1852	10	CET	m2_c1	LEFT	1.6544999999999845	50	2
0312a	354.7269	10	CET	c1_m0	LEFT	1.9528000000000247	0	2
0312a	371.7686	10	dummy	dr2	RIGHT	1.1270999999999844	0	0
0312a	387.8103	10	CET	m2_c2	LEFT	1.5252000000000407	50	10
0312a	403.352	10	CET	m4_c0	LEFT	1.487700000000018	100	0
0312a	418.8937	10	CET	c0_m5	RIGHT	1.2419999999999618	120	0
0312a	435.1854	10	dummy	dl3	LEFT	1.150199999999984	0	0
0312a	451.977	10	CET	m4_c1	LEFT	1.518700000000024	100	2
0312a	467.2687	10	CET	c4_m4	RIGHT	1.1468999999999596	100	40
0312a	483.3104	10	dummy	dl2	LEFT	1.6252999999999815	0	0
0312a	498.3605	10	CET	c0_m2	RIGHT	0.7350999999999885	50	0
0312a	514.9022	10	CET	c4_m3	RIGHT	1.1774000000000342	80	40
0312a	530.6938	10	CET	m5_c4	LEFT	1.2257999999999356	120	40
0312a	546.4855	10	CET	c4_m0	LEFT	1.4500000000000455	0	40
0312a	561.5272	10	dummy	dl4	LEFT	1.5044000000000324	0	0
0312a	578.3188	10	CET	c2_m4	RIGHT	1.0728000000000293	100	10
0312a	593.3606	10	CET	m5_c1	LEFT	0.9110000000000582	120	2
0312a	609.9106	10	CET	c5_m1	RIGHT	1.8009999999999309	10	50
0312a	625.7023	10	dummy	dr4	RIGHT	0.8333000000000084	0	0
0312a	640.744	10	CET	m0_c3	RIGHT	1.5114999999999554	0	25
0312a	657.5357	10	CET	c0_m3	RIGHT	0.8958000000000084	80	0
0312a	674.3274	10	dummy	dl5	LEFT	1.3280999999999494	0	0
0312a	689.8691	10	CET	m3_c2	LEFT	0.7623999999999569	80	10
0312a	705.1608	10	CET	m2_c5	LEFT	1.0307000000000244	50	50
0312a	721.4602	10	dummy	dr5	RIGHT	1.4751999999999725	0	0
0312a	737.0103	10	CET	c1_m3	RIGHT	1.3011999999999944	80	2
0312a	753.8025	10	CET	m1_c2	LEFT	1.6129999999999427	10	10
0312c	5.794	10	CET	c4_m2	RIGHT	1.8860000000000001	50	40
0312c	20.8357	10	CET	c1_m1	RIGHT	1.9083000000000006	10	2
0312c	36.1268	10	dummy	dl0	LEFT	1.9131	0	0
0312c	51.1766	10	CET	m5_c2	LEFT	1.5673999999999992	120	10
0312c	66.9691	10	CET	c3_m5	RIGHT	1.5108000000000033	120	25
0312c	83.2602	10	CET	m0_c2	RIGHT	4.699700000000007	0	10
0312c	99.5525	10	CET	c5_m0	LEFT	2.5914000000000073	0	50
0312c	114.5935	10	dummy	dr0	RIGHT	1.3260999999999967	0	0
0312c	130.6352	10	CET	m4_c5	LEFT	1.4447000000000116	100	50
0312c	147.4359	10	CET	c3_m2	RIGHT	1.603999999999985	50	25
0312c	162.9692	10	CET	m1_c3	LEFT	1.990700000000004	10	25
0312c	178.0109	10	dummy	dl1	LEFT	1.5730000000000075	0	0
0312c	193.0526	10	CET	c0_m0	LEFT	4.787299999999988	0	0
0312c	208.3437	10	CET	c4_m1	RIGHT	1.8400999999999783	10	40
0312c	224.8943	10	CET	m4_c3	LEFT	1.705600000000004	100	25
0312c	240.936	10	dummy	dr1	RIGHT	1.4478000000000009	0	0
0312c	256.7277	10	CET	c5_m5	RIGHT	1.4960999999999558	120	50
0312c	273.0194	10	CET	m1_c0	LEFT	2.300399999999968	10	0
0312c	290.0605	10	dummy	dr3	RIGHT	1.0593000000000075	0	0
0312c	306.6022	10	CET	m3_c3	LEFT	1.8776000000000295	80	25
0312c	322.8945	10	CET	m3_c5	LEFT	1.5692999999999984	80	50
0312c	338.1861	10	CET	m2_c1	LEFT	1.4137000000000057	50	2
0312c	354.7278	10	CET	c1_m0	LEFT	1.9119999999999777	0	2
0312c	371.7689	10	dummy	dr2	RIGHT	2.310800000000029	0	0
0312c	387.8112	10	CET	m2_c2	LEFT	2.3245000000000005	50	10
0312c	403.3612	10	CET	m4_c0	LEFT	2.1585999999999785	100	0
0312c	418.9113	10	CET	c0_m5	RIGHT	2.3044000000000437	120	0
0312c	435.1941	10	dummy	dl3	LEFT	1.5815999999999804	0	0
